Index,accX,accY,accZ,girX,girY,girZ,Time(ms)
0,0.1793,-0.4623,0.3755,-3.5725,3.9542,-1.5573,57897
1,0.0882,-0.4957,0.3679,-2.7405,3.4733,-4.6718,57917
2,0.0828,-0.476,0.3552,-0.1985,4.8855,3.4198,57937
3,0.0816,-0.5165,0.3894,-0.1756,4.5267,10.4885,57957
4,0.0975,-0.5536,0.4067,-2.5573,2.3664,6.5496,57977
5,0.1046,-0.5521,0.405,-2.1908,0.6718,-1.6183,57997
6,0.1043,-0.5377,0.3792,1.9542,2.5725,-6.5115,58017
7,0.0984,-0.5321,0.3772,3.5038,2.084,-8.1069,58037
8,0.1138,-0.5238,0.4082,0.626,-3.2824,-10.458,58057
9,0.0982,-0.5153,0.4114,-2.7405,-8.4656,-14.0382,58077
10,-0.0842,-0.5927,0.5063,-0.1069,-9.5725,-16.7252,58097
11,0.107,-0.5135,0.3904,6.8855,-7.2748,-11.2595,58117
12,0.441,-0.4054,-0.0042,11.916,26.0611,6.7481,58137
13,0.0135,-0.2994,0.3789,7.084,12.1603,14.855,58157
14,0.0792,-0.528,0.4106,-17.313,1.3511,25.2824,58177
15,0.1204,-0.557,0.4478,-34.2672,-0.6183,14.8092,58197
16,0.1116,-0.5392,0.4392,-54.0458,4.4122,14.3206,58217
17,0.2188,-0.5536,0.363,-71.6412,12.8702,22.8702,58237
18,0.1863,-0.6964,0.4187,-78.7939,26.6565,38.4122,58257
19,0.1937,-0.8143,0.3433,-70.3664,32.6641,35.3588,58277
20,0.0914,-0.7719,0.4451,-66.9466,46.7252,45,58297
21,0.0274,-0.6715,0.4109,-73.5802,49.7786,54.0382,58317
22,-0.0129,-0.7035,0.3591,-94.4657,51.8473,64.2977,58337
23,-0.0361,-0.7919,0.2849,-114.1756,47.5573,72.855,58357
24,-0.0502,-0.8292,0.197,-123.5954,50.7481,81.687,58377
25,-0.1232,-0.7985,0.1323,-119.9847,46.2595,92.6794,58397
26,-0.1718,-0.8341,0.1138,-99.6489,36.7252,106.9008,58417
27,-0.1628,-0.8378,0.0427,-62.8779,28.1908,111.0916,58437
28,-0.2209,-0.7062,-0.0305,-25.5878,23.5725,117.7634,58457
29,-0.2617,-0.5948,-0.0325,1.1603,16.9542,133.1679,58477
30,-0.2827,-0.6427,-0.0144,22.6183,4.8931,140.0992,58497
31,-0.2802,-0.6071,-0.0505,36.374,0.1756,144.9618,58517
32,-0.3708,-0.4498,-0.0647,47.8168,-3.7481,147.7481,58537
33,-0.4291,-0.454,-0.0732,54.2977,-9.2443,156.1527,58557
34,-0.4401,-0.4476,-0.0833,61.0382,-11.1069,163.9466,58577
35,-0.5292,-0.3793,0.0024,69.8092,-14.4885,168.5267,58597
36,-0.5817,-0.2972,0.0461,77.8321,-24.1374,164.8397,58617
37,-0.5427,-0.1376,-0.0161,79.3893,-28.3969,157.5802,58637
38,-0.5883,-0.059,-0.0024,85.6565,-26.8321,184.4504,58657
39,-0.572,-0.0861,0.0408,85.7786,-24.7405,181.9771,58677
40,-0.6313,-0.0958,0.1145,88.1985,-29.8397,166.6107,58697
41,-0.6215,0.0094,0.1274,106.1374,-29.5038,163.1145,58717
42,-0.6169,0.1036,0.1067,120.6336,-24.4427,170.145,58737
43,-0.6533,0.1998,0.1052,120.313,-15.9008,177.2519,58757
44,-0.6708,0.276,0.0942,111.6947,-11.2595,176.1145,58777
45,-0.697,0.3258,0.1626,104.7099,-9.6718,173.0153,58797
46,-0.6887,0.3661,0.2141,104.7099,-11.1145,165.0458,58817
47,-0.7006,0.4757,0.2061,102.2443,-8.6565,158.1679,58837
48,-0.7048,0.5585,0.1704,95.0382,-8.8168,152.5267,58857
49,-0.7038,0.5365,0.1965,93.145,-4.145,144.8015,58877
50,-0.7282,0.5634,0.2417,87.4504,-5.3206,135.3664,58897
51,-0.696,0.6549,0.2275,71.0611,-7.1527,128.6641,58917
52,-0.6479,0.6891,0.1746,55.374,-7.2443,121.4885,58937
53,-0.6503,0.7094,0.175,49.6336,-8.0916,119.1374,58957
54,-0.6081,0.7277,0.1711,51.229,-5.4809,113.8397,58977
55,-0.6325,0.7594,0.2324,53.313,-6.5573,110.3359,58997
56,-0.5798,0.7723,0.2334,57.0153,-12.9771,102.3664,59017
57,-0.5549,0.8588,0.2378,60.9466,-15.0382,96.8015,59037
58,-0.5092,0.891,0.2371,60.6183,-10.5191,89.2137,59057
59,-0.4885,0.9467,0.2703,53.1832,-5.5725,79.6336,59077
60,-0.506,0.9454,0.2856,41.0916,-8.6412,65.6718,59097
61,-0.4528,0.9435,0.2554,44.145,-14.1908,51.2519,59117
62,-0.4299,0.9823,0.238,55.8702,-6.7328,42.5954,59137
63,-0.4106,1.0021,0.218,56.5954,7.542,36.4885,59157
64,-0.5192,1.0143,0.2385,42.6794,12.458,32.0916,59177
65,-0.5578,1.0533,0.2292,25.7405,2.9618,24.7176,59197
66,-0.5056,1.0519,0.2173,16.6107,-6.687,15.5802,59217
67,-0.4582,1.0941,0.1326,16.0229,0.5267,14.2824,59237
68,-0.5373,1.0848,0.1475,5.6641,0.0458,21.5496,59257
69,-0.4587,1.0416,0.1687,0.2061,5.2748,17.8931,59277
70,-0.5356,1.0192,0.2371,3.0458,8.5802,9.9771,59297
71,-0.4948,1.0211,0.2068,12.2901,5.1145,0.8168,59317
72,-0.5075,1.0348,0.1724,19.0687,15.4885,-1.0687,59337
73,-0.5109,1.0094,0.1321,19.6947,28.8015,-0.6489,59357
74,-0.569,1.0292,0.1846,16.9466,29.2824,10.145,59377
75,-0.5654,1.0763,0.2083,14.1221,20.2366,15.374,59397
76,-0.53,1.1063,0.1787,11.9771,18.9618,13.3588,59417
77,-0.5507,1.1078,0.1321,8.5344,17.9237,8.6641,59437
78,-0.5881,1.0975,0.106,0.4275,17.855,9.313,59457
79,-0.5803,1.12,0.1072,-2.2595,12.7481,8.9771,59477
80,-0.5536,1.0748,0.113,-1.374,1.626,7.1603,59497
81,-0.5578,1.0275,0.1099,3.0076,-11.3282,1.0382,59517
82,-0.5424,1.1217,0.1533,-7.3359,-15.3817,-0.9008,59537
83,-0.5402,1.1073,0.1521,-20.0382,-17.3359,-5.4122,59557
84,-0.5019,1.078,0.116,-19.5725,-16.9466,-9.9237,59577
85,-0.5009,1.0682,0.0823,-8.1908,-9.9313,-8.5267,59597
86,-0.5722,0.9623,0.2344,4.5954,-12.9542,-12.458,59617
87,-0.6247,1.0907,0.2163,9.8626,-33.6336,-20.0382,59637
88,-0.5261,1.161,0.1121,-10.2061,-37.4122,-16.5573,59657
89,-0.5002,1.0865,0.1375,-25.9237,-27.2443,-13.7481,59677
90,-0.507,1.0321,0.1758,-24.6336,-15.1679,-11.7252,59697
91,-0.5224,0.9567,0.231,-13.3588,-7.1069,-9.7863,59717
92,-0.4951,0.9808,0.1819,5.2366,6.9084,-4.0611,59737
93,-0.4987,0.9965,0.1626,18.5344,23.2061,6.3282,59757
94,-0.5641,1.0404,0.1855,26.0076,34.6947,14.8092,59777
95,-0.6149,1.0729,0.1956,17.313,30.7863,22.8626,59797
96,-0.5837,1.1,0.137,15.9313,28.0305,25.4809,59817
97,-0.5798,1.0394,0.1416,22.9924,24.9771,26.5725,59837
98,-0.5656,1.0858,0.1274,29.916,19.7405,27.084,59857
99,-0.5895,1.1051,0.1667,21.9084,6.374,24.8473,59877
100,-0.5217,1.1056,0.1204,14.3969,-2.2443,21.4122,59897
101,-0.5104,1.1141,0.094,22.9695,3.7939,19.8855,59917
102,-0.5217,1.1136,0.1086,21.1069,5.6489,20.5344,59937
103,-0.5209,1.1559,0.075,13,2.7786,18.3969,59957
104,-0.4738,1.16,0.0576,1.4046,-0.771,13.5802,59977
105,-0.4836,1.0619,0.1057,11.9237,2.7557,-4.6107,59997
106,-0.5842,1.2338,0.1492,12.8702,-2.9924,-17.4504,60017
107,-0.5803,1.1578,0.0972,-6.6107,-18.0687,-28.7405,60037
108,-0.5165,1.0743,0.0891,-21.6565,-14.542,-20.8779,60057
109,-0.4633,0.9757,0.0461,-22.4733,-2.6947,-13.2901,60077
110,-0.4594,0.965,0.0354,1.4885,12.1832,-5.1756,60097
111,-0.5195,1.0538,0.0967,18.4046,15.4427,-3.2977,60117
112,-0.5334,1.1366,0.0955,14.8168,9.0076,-7.6718,60137
113,-0.5563,1.1608,0.1045,-1.9389,3.0763,-12.9924,60157
114,-0.5275,1.1185,0.1064,-15.145,-0.4198,-18.3817,60177
115,-0.5175,1.0804,0.1062,-19.2061,1.6489,-18.9313,60197
116,-0.5283,1.0431,0.1135,-18.1603,3.542,-18.7328,60217
117,-0.5397,1.0778,0.1125,-11.7023,7.8931,-19.1145,60237
118,-0.5568,1.0895,0.1196,-11.2901,6.229,-20.7099,60257
119,-0.5407,1.0648,0.1035,-16.8779,3.916,-19.6489,60277
120,-0.5607,1.0043,0.0969,-16.4427,1.8626,-16.313,60297
121,-0.5663,0.9865,0.0967,-4.7786,3.5573,-11.2214,60317
122,-0.5346,1.0216,0.0862,6.1908,7.3511,-2.7328,60337
123,-0.5429,1.0094,0.0793,14.0458,15.9237,5.5573,60357
124,-0.5558,1.0438,0.0803,19.1221,26.3664,15.1069,60377
125,-0.5988,1.0951,0.0952,20.1756,26.9084,19.0916,60397
126,-0.6147,1.0748,0.0874,21.145,15.7786,11.5573,60417
127,-0.5917,1.1183,0.0564,15.6107,7.0305,5.9924,60437
128,-0.5732,1.1158,0.054,3.9389,6.1603,1.1527,60457
129,-0.5468,1.0558,0.0413,-1.4046,8.7481,-1.2977,60477
130,-0.5558,0.9821,0.0525,14.0992,13.626,0.626,60497
131,-0.5734,0.9987,0.05,33.1908,16.3359,4.0076,60517
132,-0.5891,1.0316,0.0471,33.8702,11.9084,3.5496,60537
133,-0.5986,1.1254,0.0305,21.8321,3.5267,-1.9542,60557
134,-0.5781,1.1283,0.0112,5.145,-4.6336,-9.0763,60577
135,-0.569,1.0709,0.0481,-0.9771,-7.0687,-15.9847,60597
136,-0.5659,1.0363,0.0601,3.2748,-7.3435,-20.8626,60617
137,-0.5744,1.0753,0.0376,1.145,-8.7023,-19.5573,60637
138,-0.5969,1.0966,0.0195,-5.6718,-11.7939,-16.2977,60657
139,-0.612,1.0463,0.0352,-13.5038,-19,-15.084,60677
140,-0.5903,1.0099,0.021,-11.8702,-21.7634,-17.1145,60697
141,-0.5937,1.067,0.0398,-12.8702,-17.1908,-16.5038,60717
142,-0.6269,1.0792,0.0671,-22.5267,-17.084,-17.9924,60737
143,-0.602,0.9982,0.0889,-27.7328,-13.9008,-16.5878,60757
144,-0.5812,0.9501,0.0933,-22.4656,-7.4504,-12.5954,60777
145,-0.5746,0.9703,0.0818,-11.4046,1.8397,-7.0534,60797
146,-0.5764,0.9838,0.0781,-2.5725,6.5649,-2.7176,60817
147,-0.5939,1.0009,0.0859,1.2595,9.6489,2.3359,60837
148,-0.6113,1.0135,0.0886,-2.8321,6.5954,5.0992,60857
149,-0.5974,1.0238,0.0732,-6.2824,6.7099,6.2137,60877
150,-0.5871,1.0179,0.0581,-7.2595,11.7405,8.4733,60897
151,-0.5959,0.9894,0.0845,-2.3053,15.3359,9.5267,60917
152,-0.6066,1.0297,0.1064,3.0992,15.8092,9.2061,60937
153,-0.6054,1.038,0.0864,0.2137,12.8626,8.0992,60957
154,-0.6049,1.0272,0.1057,-1.4122,12.3359,6.0229,60977
155,-0.632,1.0118,0.1257,-3.3435,10.4427,3.7786,60997
156,-0.6269,1.0265,0.0708,-0.1985,5.9389,1.7023,61017
157,-0.6161,1.0138,0.0503,2.3893,4.2977,2.6641,61037
158,-0.6154,1.0214,0.0481,2.4504,-1.3664,0.8397,61057
159,-0.6115,1.0138,0.0464,3.916,-6.9771,-2.374,61077
160,-0.5856,1.0638,0.04,5.229,-7.4198,-1.4809,61097
161,-0.6205,1.0277,0.1003,2.2977,-14.8015,-3.8626,61117
162,-0.5981,1.0458,0.0679,-1.6412,-17.9313,-5.5496,61137
163,-0.5724,0.993,0.0547,-1.771,-14.3282,-7.1908,61157
164,-0.6049,1.0702,0.0869,-0.7176,-11.7634,-6.5725,61177
165,-0.5934,1.0243,0.0862,-11.4427,-13.5115,-7.2519,61197
166,-0.5893,0.9752,0.0984,-10.9466,-9.4275,-8.3206,61217
167,-0.5873,1.0099,0.0701,-5.6641,-6.8092,-7.6031,61237
168,-0.5803,0.9948,0.0918,-8.1298,-1.2519,-2.7405,61257
169,-0.5825,0.9774,0.1064,-3.4809,4.9542,0.4885,61277
170,-0.5607,0.9972,0.0942,2.7481,10.4275,5.4885,61297
171,-0.569,1.0018,0.0789,4.2061,15.8931,10.4885,61317
172,-0.5939,1.0343,0.0725,5.3435,16.8626,11.3893,61337
173,-0.6049,1.0504,0.0881,3.7405,12.7328,9.1679,61357
174,-0.5954,1.079,0.0806,-0.5573,7.626,7.3359,61377
175,-0.5727,1.0089,0.0659,0.2443,8.9237,6.2748,61397
0,0.0858,-0.3173,0.8416,0.6947,6.3893,1.7176,64557
1,0.2413,-0.2638,0.7427,-0.0229,3.4275,4.3588,64577
2,0.2379,-0.2748,0.7527,-0.3969,2.6107,3.771,64597
3,0.2274,-0.2599,0.7415,-0.8855,3.9084,1.2443,64617
4,0.2283,-0.2474,0.738,-3.0687,2.8702,0.1221,64637
5,0.2383,-0.2621,0.7288,-0.4885,4.9313,0.7023,64657
6,0.2491,-0.2848,0.7305,2.7634,6.8931,0.1756,64677
7,0.2505,-0.2885,0.7444,3.0611,6.9618,-1.4351,64697
8,0.2354,-0.2731,0.7488,2.2137,4.5649,-0.771,64717
9,0.2418,-0.277,0.7524,-1.5725,0.2672,-0.9924,64737
10,0.0235,-0.0292,1.1985,-2.1069,-35.8321,-4.1603,64757
11,0.242,-0.2582,0.7192,8.8702,4.7099,-3.4046,64777
12,0.2112,-0.1676,0.6428,2.2977,14.4962,4.1298,64797
13,0.243,-0.2054,0.6133,7.084,16.7557,20.3893,64817
14,0.244,-0.276,0.6804,2.8473,12.3511,12.2214,64837
15,0.2012,-0.2396,0.741,4.8092,7.6336,-2.8702,64857
16,0.2242,-0.2504,0.7183,6.3664,14.1298,0.5267,64877
17,0.2213,-0.2203,0.6904,6.542,19.9084,0.8092,64897
18,0.2142,-0.2179,0.7092,5.626,22.3817,2.2901,64917
19,0.1983,-0.2462,0.769,5.2748,20.0916,0.5878,64937
20,0.1807,-0.2579,0.8113,3.4809,16.1908,-1.7176,64957
21,0.1761,-0.2665,0.8162,-1.0076,16.0458,-3.626,64977
22,0.1429,-0.3197,0.7874,1.4275,15.1985,-5.9924,64997
23,0.1617,-0.2823,0.7454,10.9008,15.6489,-7.374,65017
24,0.1431,-0.2477,0.7703,15.0458,17.0763,-8.855,65037
25,0.1165,-0.2128,0.7998,8.8092,13.9237,-11.0382,65057
26,0.1185,-0.1908,0.7952,0.3053,9.4351,-8.2061,65077
27,0.1187,-0.2252,0.7969,-7.0382,5.6336,-4.7023,65097
28,0.136,-0.2665,0.7849,-7.9237,2.4733,-3.9847,65117
29,0.138,-0.2601,0.771,-6.4809,0.6412,-4.8015,65137
30,0.1529,-0.2462,0.7603,-8.0534,-1.5267,-3.855,65157
31,0.159,-0.2823,0.6987,-6.0763,0.5496,-2.6412,65177
32,0.1939,-0.3014,0.6599,1.8626,5.1069,-2.7328,65197
33,0.1949,-0.2804,0.6995,10.8168,10.084,-5.7786,65217
34,0.1683,-0.2076,0.75,8.3588,9.7023,-4.8092,65237
35,0.1468,-0.2023,0.7888,0.916,5.9237,-0.145,65257
36,0.1797,-0.1947,0.8108,-8.7405,9.7863,7.1069,65277
37,0.2015,-0.2196,0.8484,-26.5344,13.1832,8.3359,65297
38,0.2056,-0.2784,0.8733,-45.5496,20.7252,13.1603,65317
39,0.2535,-0.4166,0.8979,-62.0076,28.4351,20.3511,65337
40,0.2352,-0.4752,0.8501,-70.2443,42.9771,29.3817,65357
41,0.1392,-0.4823,0.8271,-76.6412,57.3511,35.5802,65377
42,0.0821,-0.4213,0.7937,-93.9389,69.2214,45.5649,65397
43,0.0047,-0.433,0.7915,-120.6641,72.5725,61.4733,65417
44,-0.0456,-0.5531,0.7554,-143.6794,66.7786,91.626,65437
45,-0.0427,-0.6451,0.6211,-144.4351,66.2214,108.7481,65457
46,-0.1015,-0.652,0.5149,-122.7328,64.6489,119.5878,65477
47,-0.1464,-0.6388,0.5061,-96.3359,60.5954,130.3512,65497
48,-0.1862,-0.5702,0.4771,-77.0305,55.3664,140.4962,65517
49,-0.2575,-0.4432,0.4202,-79.7405,45.5115,150.4275,65537
50,-0.301,-0.4362,0.3687,-87.9313,31.9542,155.7939,65557
51,-0.2939,-0.4659,0.3274,-76.3664,25.8626,155.9618,65577
52,-0.3068,-0.4999,0.3301,-48.5191,22.4504,154.2748,65597
53,-0.3732,-0.3993,0.3123,-11.4198,21.9542,154.8702,65617
54,-0.4372,-0.3939,0.2886,26.3435,16.3511,156.5267,65637
55,-0.3359,-0.4213,0.2073,75.3817,22.9008,155.4809,65657
56,-0.3371,-0.2692,0.1855,120.0611,44.1908,158.0763,65677
57,-0.4518,-0.0575,0.2925,123.5267,55.5115,161.2672,65697
58,-0.5727,0.0123,0.3774,87.4657,47.0153,168.6565,65717
59,-0.5729,0.0582,0.324,53.9313,39.9237,170.2595,65737
60,-0.5886,0.0013,0.2986,44.6183,41.5267,166.8092,65757
61,-0.5912,0.0804,0.2664,56,50.1527,169.6794,65777
62,-0.6503,0.0929,0.3359,72.8779,50.1679,168.6947,65797
63,-0.6721,0.245,0.2993,79.6107,49.3969,169.9313,65817
64,-0.6786,0.2909,0.2029,74.8702,51.1679,174.229,65837
65,-0.6994,0.2948,0.2437,77.1374,50.458,172.1527,65857
66,-0.7275,0.3917,0.3015,85.6107,36.7557,174.3053,65877
67,-0.695,0.5248,0.1912,94.9847,29.4275,175.6412,65897
68,-0.6315,0.6622,0.0608,100.8473,44.916,174.5954,65917
69,-0.707,0.6718,0.1536,106.3206,59.6489,170.9771,65937
70,-0.7097,0.7885,0.1877,104.9084,59.6641,152.458,65957
71,-0.7014,0.8361,0.1533,87.9389,59.1145,136.6107,65977
72,-0.7277,0.8724,0.1421,70.4198,48.8626,118.3053,65997
73,-0.6755,0.8536,0.1096,45.313,35.0229,96.3588,66017
74,-0.6638,0.8241,0.1143,23.9313,25.7939,83.9466,66037
75,-0.6281,0.8097,0.072,9.4809,20.8092,71.3817,66057
76,-0.6459,0.8361,0.0989,6.2672,17.145,70.4885,66077
77,-0.644,0.8429,0.1062,5.9771,5.9008,67.7252,66097
78,-0.5859,0.8673,0.0332,9.8779,6.7481,63.6412,66117
79,-0.5981,0.9022,0.0725,13.4122,8.1603,58.4962,66137
80,-0.5886,0.9091,0.1077,12.3359,9.2366,51.0992,66157
81,-0.6149,0.9584,0.126,9.2443,3.4122,41.9313,66177
82,-0.5705,0.9857,0.0906,1.9618,-2.3511,31.4962,66197
83,-0.5165,0.9088,0.043,12.0763,1.916,19.5267,66217
84,-0.5346,0.9476,0.0894,26.6031,7.9924,10.084,66237
85,-0.5942,0.9813,0.1104,23.8397,5.916,0.916,66257
86,-0.6191,1.0258,0.113,4.5038,-2.1985,-4.3206,66277
87,-0.549,0.9813,0.0466,-8.916,-0.9237,-4.6412,66297
88,-0.5427,0.9127,0.0378,-4.1298,11.6412,-1.5573,66317
89,-0.5734,0.9147,0.0305,2.7786,22.8092,7.6336,66337
90,-0.6118,0.9078,0.0381,8.4198,26.0687,16.1908,66357
91,-0.5966,0.9127,0.0381,27.0153,27.8931,23.2672,66377
92,-0.6249,0.9769,0.0305,46.2214,32.6947,32.0305,66397
93,-0.6245,1.1246,0.001,37.313,23.3664,36.7405,66417
94,-0.5981,1.0419,0.031,11.6718,12.1374,37.2061,66437
95,-0.5463,0.9137,0.0027,24.7634,5.9924,28.8321,66457
96,-0.5598,1.0756,0.0112,40.8244,4.8473,24.771,66477
97,-0.601,1.1134,0.012,34.8015,5.5496,20.8473,66497
98,-0.5803,1.0695,-0.002,24.6183,8.8015,17.4886,66517
99,-0.6071,1.0814,-0.0144,17.5114,9.5802,14.1756,66537
100,-0.6066,1.1002,-0.0417,6.3664,7.4122,11.5725,66557
101,-0.6054,1.0878,-0.0557,-1.8931,4.1527,6.1145,66577
102,-0.6147,1.0978,-0.0605,-7.4351,0.6412,-2.4885,66597
103,-0.5986,1.1517,-0.0708,-22.9695,-5.4656,-13.3817,66617
104,-0.5983,1.1678,-0.0508,-47.6489,-13.6718,-22.3588,66637
105,-0.5903,1.0624,0.052,-56.2748,-20,-29.6489,66657
106,-0.5771,0.9891,0.0442,-49.9847,-23.1298,-30.2977,66677
107,-0.6201,0.9449,0.0835,-35.6031,-29.0611,-29.2519,66697
108,-0.6237,1.0468,-0.0071,-37.1145,-34.3206,-27.1298,66717
109,-0.614,1.0907,-0.01,-55,-35.2672,-23.5878,66737
110,-0.6198,1.0087,0.0576,-65.8473,-34.5115,-21.2901,66757
111,-0.5998,0.8566,0.1033,-50.8779,-37.0076,-20.9542,66777
112,-0.5576,0.8309,0.0786,-17.2137,-25.3969,-13.9237,66797
113,-0.5817,0.9723,0.054,1.8015,-8.3893,1.5267,66817
114,-0.5805,1.0538,0.0825,-4.8931,1.1756,22.0763,66837
115,-0.5163,0.86,0.0837,-4.1756,16.7557,24.9542,66857
116,-0.5737,0.8766,0.1392,20.2443,33.3053,30.6489,66877
117,-0.5995,1.0089,0.1274,38.0458,33.5725,34.229,66897
118,-0.5683,1.0009,0.0925,42.2519,34.9008,36.7176,66917
119,-0.5488,0.9994,0.0437,56.8015,44.7252,31.5114,66937
120,-0.6774,1.1622,0.1301,38.5649,32.7176,28.6565,66957
121,-0.61,1.1014,0.0937,16.3435,13.4962,16.8244,66977
122,-0.5588,1.0233,-0.0334,39.7099,7.4809,11.3893,66997
123,-0.582,1.0511,-0.0024,51.8244,15.1069,16.2595,67017
124,-0.6057,1.1117,0.0076,41.8321,12.2595,15.9389,67037
125,-0.6108,1.1136,-0.0134,20.2519,6.8092,11.0382,67057
126,-0.59,1.1298,-0.0496,6.4809,3.1374,3.2214,67077
127,-0.5712,1.1356,-0.0713,-2.5038,-0.6336,-4.7557,67097
128,-0.5939,1.13,-0.0276,-10.8626,-7.6489,-12.8015,67117
129,-0.6113,1.1266,0.0193,-25.1908,-19.9542,-18.5267,67137
130,-0.5925,1.0677,0.0295,-40.4809,-26.9618,-25.3206,67157
131,-0.6088,1.0165,0.0527,-43.9084,-32.7939,-32.1374,67177
132,-0.5849,1.0468,0.0076,-38.687,-34.8015,-35.1908,67197
133,-0.5849,1.0358,-0.0007,-30.6641,-31.1832,-32.3511,67217
134,-0.5905,1.0123,0.0435,-29.7557,-29.0305,-26.7328,67237
135,-0.5905,0.953,0.062,-31.687,-27.5038,-20.4656,67257
136,-0.5905,0.9401,0.0752,-26.687,-23.6183,-10.1985,67277
137,-0.571,0.9691,0.0657,-19.2595,-13.1527,2.9618,67297
138,-0.5612,0.955,0.0601,2.5191,1.2748,14.2748,67317
139,-0.5422,1.0172,0.0405,16.5954,18.6794,26.0382,67337
140,-0.6096,1.016,0.0935,23.0229,30.2366,33.3664,67357
141,-0.6567,1.0729,0.1328,27.2443,30.1221,35.2901,67377
142,-0.632,1.1056,0.0891,19.7023,29.8015,37.1908,67397
143,-0.6078,1.0651,0.0674,19.4962,28.771,36.0687,67417
144,-0.5947,1.1097,0.0449,20.5802,25.229,38,67437
145,-0.5947,1.1058,0.0391,10.8931,16.9542,34.5191,67457
146,-0.5449,1.0804,0.0198,4.6641,10.6641,28.0916,67477
147,-0.5361,1.0521,0.0337,6.9771,8.5573,19.9466,67497
148,-0.5082,1.0826,-0.0288,8.5038,3.4351,11.0534,67517
149,-0.5182,1.101,-0.0242,-2.8092,3.6336,3.1298,67537
150,-0.5456,1.0875,0.0261,-13.2443,-0.3588,-4.2748,67557
151,-0.5546,1.0731,0.0576,-21.2977,-5.8015,-10.3053,67577
152,-0.5407,1.0641,0.0483,-23.8397,-10.5878,-12.6412,67597
153,-0.5392,1.0519,0.0515,-19.2824,-9.916,-12.1221,67617
154,-0.5705,1.0685,0.0625,-11.6183,-12.8626,-13.0305,67637
155,-0.5634,1.09,0.0515,-11.7023,-17.5573,-14.5954,67657
156,-0.5483,1.0482,0.0344,-13.1374,-17.2137,-16.2901,67677
157,-0.5605,1.0421,0.0662,-9.5573,-16.3359,-13.9847,67697
158,-0.5805,1.0548,0.0916,-7.6641,-14.8321,-9.9389,67717
159,-0.559,1.0546,0.1025,-9.9237,-15.8015,-4.2443,67737
160,-0.5104,1.0221,0.0708,-5.0458,-7.7099,4.542,67757
161,-0.488,1.0319,0.063,-0.0458,7.9924,15.9313,67777
162,-0.5004,1.0067,0.0725,6.771,21.3511,20.9389,67797
163,-0.5305,1.0321,0.0796,21.2061,29.771,21.2214,67817
164,-0.5588,1.0831,0.0767,25.9389,28.4351,22.7405,67837
165,-0.5502,1.1095,0.0559,16.8397,22.5191,22.0916,67857
166,-0.5248,1.0824,0.0574,9.7863,21.6565,21.2519,67877
167,-0.5197,1.0753,0.0532,14.1298,22.916,19.8015,67897
168,-0.5554,1.0909,0.0618,19.6412,18.2214,15.1603,67917
169,-0.5554,1.1469,0.019,19.3969,12.0153,9.8244,67937
170,-0.5471,1.1896,0.0005,5.4275,7.7481,4.8779,67957
171,-0.5517,1.1246,0.0098,-8.0534,4.0458,-2.4122,67977
172,-0.5363,1.1132,0.0251,-9.6947,1.4198,-6.0687,67997
173,-0.5529,1.0934,0.0305,-8.5115,-3.4198,-10.9924,68017
174,-0.5385,1.077,0.0132,-1.4198,-8.4885,-15.2443,68037
175,-0.5432,1.1151,0.0151,0.7863,-11.5725,-16.1603,68057
0,0.096,-0.2006,0.9314,2.3969,-0.8626,-1.8626,70977
1,0.2078,-0.1708,0.8135,-0.5115,4.9389,-2.0458,70997
2,0.2059,-0.1444,0.8203,-2.7939,1.6031,2.542,71017
3,0.2064,-0.1573,0.8003,-2.3282,1.2443,4.2366,71037
4,0.2032,-0.1666,0.7976,-1.2977,2.9695,4.9542,71057
5,0.2134,-0.1884,0.8074,0.3053,3.6947,4.8702,71077
6,0.2264,-0.1935,0.8201,4.0763,3.916,3.3969,71097
7,0.2039,-0.222,0.8755,5.4427,-0.9084,-1.626,71117
8,0.2098,-0.234,0.8887,4.7939,-13.6641,-8.2214,71137
9,0.2505,-0.2272,0.8696,5.2366,-25.7863,-13.2214,71157
10,0.1451,-0.236,0.6707,5.8168,-12.6718,-17.2901,71177
11,0.1754,-0.0148,0.8098,0.3664,4.7939,-9.2443,71197
12,0.0486,0.0677,0.9695,-25.626,-34.4504,3.4046,71217
13,0.5279,-0.1747,0.76,-52.4427,-28.3511,16.2443,71237
14,0.4473,-0.2887,0.7893,-43.1603,13.8397,22.7023,71257
15,0.3013,-0.2863,0.8599,-47.8321,23.6794,15.4351,71277
16,0.3096,-0.2802,0.9023,-66.1679,35.1908,16.2519,71297
17,0.2366,-0.3256,0.9741,-80.0382,42.084,28.313,71317
18,0.2352,-0.3351,0.9478,-92.8015,46.1832,33.5115,71337
19,0.2376,-0.3446,0.9053,-111.771,59.1069,48.4046,71357
20,0.1756,-0.4896,0.8799,-120.9008,68.2824,67.8702,71377
21,0.1253,-0.5497,0.8521,-115.5191,76.6794,74.7557,71397
22,0.0865,-0.5697,0.7903,-112.2824,76.4351,81,71417
23,0.0716,-0.5172,0.6831,-109.9084,82.7557,97.0382,71437
24,-0.0082,-0.5612,0.6472,-112.6641,83.9618,113.5343,71457
25,-0.0463,-0.6151,0.5684,-110.3359,78.8015,123.2748,71477
26,-0.0993,-0.5824,0.4836,-98.8321,75.4275,132.7481,71497
27,-0.1462,-0.5177,0.4155,-90.8244,71.2366,145.3893,71517
28,-0.2189,-0.486,0.3877,-84.5878,65.6336,158.3664,71537
29,-0.2687,-0.4779,0.3416,-79.5573,53.5573,165.9084,71557
30,-0.2983,-0.3893,0.2563,-75.4962,45.5115,168.9389,71577
31,-0.3615,-0.3959,0.2253,-66.0916,38.1298,168.4733,71597
32,-0.4059,-0.3837,0.219,-41.4198,29.1985,165.9084,71617
33,-0.404,-0.3507,0.2014,-12.771,22.6183,166.0992,71637
34,-0.4074,-0.2255,0.1575,8.0382,24.9771,167.1832,71657
35,-0.5016,-0.1722,0.1501,17.374,22.8397,170.8397,71677
36,-0.5383,-0.1117,0.1487,28.6031,18.0229,168.626,71697
37,-0.5866,-0.0834,0.1653,42.5573,16.5267,172.8168,71717
38,-0.57,-0.0243,0.1567,52.0382,14.0229,170.9313,71737
39,-0.5954,0.0138,0.1738,55.5038,14.2672,165.8092,71757
40,-0.6757,0.1085,0.1904,57.229,10.5115,173.3664,71777
41,-0.6498,0.1305,0.1394,56.6641,3.6489,174.6107,71797
42,-0.6569,0.203,0.167,64.8397,7.9618,178.1832,71817
43,-0.6938,0.265,0.1877,72.9389,2.0382,174.9466,71837
44,-0.6955,0.3412,0.2485,80.3359,-2.0458,175.4046,71857
45,-0.6743,0.4303,0.2383,86.1374,-0.5878,172.7405,71877
46,-0.6879,0.5514,0.2012,89.0992,0.4351,169.3588,71897
47,-0.6696,0.6027,0.1975,87.5573,3.6489,166.4275,71917
48,-0.6728,0.6554,0.2102,84,6.7786,157.5649,71937
49,-0.6767,0.7408,0.2156,73.5267,6.5649,147.8702,71957
50,-0.6743,0.725,0.21,63.6412,-0.1908,135.4962,71977
51,-0.6323,0.7928,0.1685,66.5954,0.9466,123.3664,71997
52,-0.6523,0.8522,0.2061,67.5267,-0.9008,112.9771,72017
53,-0.6367,0.8964,0.2285,51.2443,-10.4962,102.5191,72037
54,-0.5807,0.8636,0.1941,32.1145,-16.6565,89.5802,72057
55,-0.5864,0.8492,0.24,22.6183,-22.5802,74.7099,72077
56,-0.5783,0.8932,0.2524,19.1145,-30.2443,65.1221,72097
57,-0.5453,0.976,0.2388,13.5954,-29.9542,58.5496,72117
58,-0.4975,0.923,0.2158,8.4122,-23.5496,51.7252,72137
59,-0.5085,0.8585,0.2292,18.4886,-14.542,46.8015,72157
60,-0.5624,0.8969,0.3115,27.1527,-14.3053,41.9389,72177
61,-0.538,0.9882,0.2888,26.9542,-17.916,35.8397,72197
62,-0.5219,1.0455,0.2593,19.4962,-19.8473,28.687,72217
63,-0.4706,1.0148,0.2222,15.5649,-15.084,20.4886,72237
64,-0.4753,0.9994,0.1782,15.5496,-0.5649,17.229,72257
65,-0.5573,1.0656,0.271,2.4656,3.9924,23.1527,72277
66,-0.5707,1.0304,0.3367,-14.6412,-5.7786,20.2672,72297
67,-0.4765,0.976,0.2703,-9.3664,-4.3435,15.2137,72317
68,-0.467,0.9945,0.2195,5.7557,6.2672,18.6947,72337
69,-0.5146,1.0594,0.2361,4.0229,12.7099,22.2824,72357
70,-0.5466,1.0233,0.2773,-4.8321,9.5344,24.4504,72377
71,-0.5046,0.9589,0.291,-0.6336,5.0305,20.2824,72397
72,-0.4955,1.0262,0.2498,13.2214,10.6718,16.1756,72417
73,-0.5161,1.0736,0.2495,17.3053,10.458,13.3435,72437
74,-0.4807,1.0875,0.2288,9.771,15.1374,13.7023,72457
75,-0.5876,1.0565,0.2737,-0.2519,19.4886,16.313,72477
76,-0.5739,1.0682,0.2722,-7.9847,14.4046,18.1374,72497
77,-0.5121,1.0236,0.2266,1.2137,17.2061,15.9466,72517
78,-0.4772,1.0612,0.1836,13.9847,20.7405,22.3282,72537
79,-0.5014,1.0206,0.218,21.9389,17.4351,23.3817,72557
80,-0.5234,1.0675,0.2205,22.7405,11.6718,22.5649,72577
81,-0.5334,1.0961,0.2092,15.3359,7.3817,19.3511,72597
82,-0.4941,1.1298,0.1763,9.6947,6.9313,16.229,72617
83,-0.4748,1.1105,0.2009,10.1069,5.7939,12.3893,72637
84,-0.4763,1.1427,0.2156,6.7557,6.3359,6.542,72657
85,-0.5141,1.1141,0.2153,-4.7023,2.374,-0.3893,72677
86,-0.519,1.0924,0.1716,-10.084,0.0076,-4.9695,72697
87,-0.5185,1.0734,0.1804,-1.0611,-3.9237,-7.3893,72717
88,-0.4924,1.119,0.1978,7.542,-8.2824,-8.7557,72737
89,-0.5324,1.1351,0.2239,1.5725,-14.2519,-8.3893,72757
90,-0.508,1.0795,0.1975,-9.5115,-18.4275,-11.5573,72777
91,-0.5358,1.0966,0.207,-12.855,-18.542,-10.2595,72797
92,-0.4848,1.0968,0.1956,-9.9695,-14.3588,-12.8855,72817
93,-0.4894,1.08,0.2104,-7.0992,-7.3359,-10.4656,72837
94,-0.5485,1.0724,0.2451,-7.2443,-10.229,-7.8244,72857
95,-0.5358,1.0753,0.2341,-14.5496,-17.2977,-7.771,72877
96,-0.5046,1.0822,0.2017,-19.2443,-17.7405,-6.5267,72897
97,-0.4799,1.035,0.1885,-12.1832,-13.2366,-2.7634,72917
98,-0.4601,1.0316,0.2131,2.4733,-1.8931,2.7176,72937
99,-0.4877,1.038,0.2695,9.8473,9.0534,9.0992,72957
100,-0.5148,1.0577,0.2676,12.0076,12.5649,10.9389,72977
101,-0.5078,1.0917,0.2395,13.1679,14.4046,12.8931,72997
102,-0.5202,1.0765,0.2397,15.2748,11.8092,14.5191,73017
103,-0.5148,1.0995,0.2244,18.0916,10.4962,14.3053,73037
104,-0.4733,1.0865,0.2065,17.3435,15.8168,13.9313,73057
105,-0.4899,1.0919,0.2019,19.9924,21.6565,13.9771,73077
106,-0.5078,1.1356,0.1694,19.7023,25.2137,17.4351,73097
107,-0.4958,1.1224,0.1716,17.6947,25.6489,19.6412,73117
108,-0.4775,1.0748,0.1777,21.6641,26.4122,20.3893,73137
109,-0.5007,1.0985,0.1729,29.7405,24.3206,17.1527,73157
110,-0.5024,1.141,0.1545,28.855,22.771,15.1603,73177
111,-0.5129,1.163,0.1299,21.313,18.5649,12.1603,73197
112,-0.4811,1.1583,0.1079,14.3664,13.1069,7.3893,73217
113,-0.4995,1.171,0.1094,7.7634,7.687,2.5725,73237
114,-0.4924,1.1674,0.1174,-1.6947,0.8473,-1.6565,73257
115,-0.4943,1.1112,0.1494,-2.8015,-7.0534,-5.0611,73277
116,-0.4843,1.1088,0.1431,4.4962,-9.7405,-7.3206,73297
117,-0.5131,1.1053,0.1313,9.3893,-16.4733,-13.0382,73317
118,-0.5251,1.1888,0.1091,3.4122,-19.8702,-15.6183,73337
119,-0.5036,1.1842,0.104,-9.6641,-22.5573,-16.9618,73357
120,-0.4755,1.1278,0.1184,-17.8321,-21.2366,-15.7176,73377
121,-0.4809,1.0604,0.1516,-14.916,-19.3359,-13.3588,73397
122,-0.4755,1.0743,0.1562,-4.9618,-13.3969,-9.4733,73417
123,-0.4572,1.0941,0.1492,2.1374,-4.4885,-3.7252,73437
124,-0.4621,1.0887,0.1448,8.4885,3.2595,-0.2748,73457
125,-0.4758,1.0978,0.1523,9.1832,7.2672,1.9771,73477
126,-0.509,1.139,0.1729,3.8626,5.8015,4.4351,73497
127,-0.4914,1.1263,0.1621,0.0229,4.7176,5.6107,73517
128,-0.4504,1.059,0.1389,7.4656,11.3282,5.7863,73537
129,-0.4911,1.0841,0.1536,20.7099,20.084,9.4122,73557
130,-0.506,1.1737,0.1367,18.3893,24.4886,14.8092,73577
131,-0.4999,1.1268,0.1355,12.2443,27.7557,16.6641,73597
132,-0.5092,1.1115,0.136,15.626,28.458,16.5344,73617
133,-0.5117,1.1393,0.0884,17.7786,25.8779,13.6107,73637
134,-0.4968,1.1722,0.0662,13.2977,24.0611,13.084,73657
135,-0.4741,1.152,0.0632,10.0534,22.6794,13.0153,73677
136,-0.467,1.1442,0.0762,10.4733,22.2748,11.8931,73697
137,-0.4855,1.1464,0.0913,10.9389,17.9466,10.3969,73717
138,-0.4914,1.1422,0.074,9.5267,10.3588,6.145,73737
139,-0.4767,1.1578,0.0515,10.0534,6.145,1.6565,73757
140,-0.4824,1.16,0.0425,7.4809,3.145,-1.2824,73777
141,-0.4738,1.1449,0.0542,4.9313,-1.3282,-2.855,73797
142,-0.477,1.1412,0.0845,5.6947,-5.7786,-4.3053,73817
143,-0.4894,1.1498,0.082,10.0458,-10.7252,-5.4656,73837
144,-0.4987,1.1493,0.0664,10.7405,-18.9695,-8.5878,73857
145,-0.5102,1.1786,0.042,8.5191,-25.1603,-12.0458,73877
146,-0.4909,1.1798,0.0483,0.1679,-30.3817,-15.9389,73897
147,-0.4667,1.1608,0.0557,-8.2672,-29.8397,-18.5802,73917
148,-0.4785,1.1202,0.0784,-11.1679,-25.4809,-16.6336,73937
149,-0.4758,1.1141,0.0757,-8.9466,-18.3588,-12.8321,73957
150,-0.476,1.1056,0.0862,-1.9847,-12.1221,-9.2672,73977
151,-0.4579,1.1241,0.072,2.4122,-4.8397,-3.7557,73997
152,-0.4785,1.1122,0.0774,4.2443,-0.1832,0.2595,74017
153,-0.4968,1.1234,0.0852,3.6489,3.8931,2.2214,74037
154,-0.5041,1.1708,0.0852,-1.8473,7.1527,5.6107,74057
155,-0.4787,1.1259,0.0781,-5.3893,9.0458,5.8473,74077
156,-0.445,1.1281,0.0647,-0.1298,16.5573,7.9466,74097
157,-0.4838,1.1376,0.0552,2.5802,22.4351,10.9847,74117
158,-0.5031,1.1102,0.0544,5.3053,23.7328,11.2901,74137
159,-0.4641,1.1195,0.043,9.0763,26.084,16.2366,74157
160,-0.4499,1.1117,0.0474,17.3053,27.9237,15.6794,74177
161,-0.4619,1.1537,0.0339,23.1374,23.9084,15.1832,74197
162,-0.4772,1.1976,0.0491,18.374,16.5267,10.1527,74217
163,-0.4611,1.1818,0.0303,11.4504,11.0687,-0.145,74237
164,-0.4699,1.1945,0.0225,-1.5802,4.7481,-7.8244,74257
165,-0.4719,1.1569,0.0261,-11.084,-0.6489,-15.7328,74277
166,-0.4797,1.1093,0.0544,-9.5038,-3.084,-18.4504,74297
167,-0.4772,1.0826,0.0247,0.8626,-4.542,-22.2519,74317
168,-0.4909,1.1649,-0.0078,6.7863,-7.2519,-22.687,74337
169,-0.52,1.1962,0.0273,-3.0992,-13.3588,-24.4046,74357
170,-0.5297,1.1722,0.0608,-15.0763,-21.8244,-27.5802,74377
171,-0.4958,1.101,0.0498,-21.1832,-24.1527,-30.5802,74397
172,-0.4885,1.1073,0.0396,-20.0076,-16.4046,-28.6794,74417
173,-0.5422,1.0946,0.0801,-21.3817,-10.771,-26.3282,74437
174,-0.5414,1.0814,0.1277,-25.6107,-10.084,-25,74457
175,-0.5375,1.017,0.0891,-19.3664,-7.1527,-21.0992,74477
0,0.1475,-0.694,0.5813,-3.5878,-12.1298,-18.0076,77077
1,0.2632,-0.1586,0.8052,-3.5878,2.6183,-5.6107,77097
2,0.2476,-0.1354,0.8108,-0.3435,2.8702,-0.5725,77117
3,0.2632,-0.152,0.8369,-5.2519,-1.1221,-0.9466,77137
4,0.2872,-0.1461,0.803,-5.6183,-0.1298,-2.0687,77157
5,0.2957,-0.1774,0.813,-2.6565,0.7863,-1.2672,77177
6,0.282,-0.1798,0.8132,1.5649,-0.0916,0.2824,77197
7,0.2589,-0.161,0.8303,3.7328,-2.7405,0.2901,77217
8,0.2513,-0.183,0.8562,3.8702,-8.6412,-5.9924,77237
9,0.3106,-0.1439,0.8306,3.2366,-15.1527,-8.8092,77257
10,0.3709,-0.0406,0.855,5.9618,-1.1298,-2.1221,77277
11,0.2606,0.2289,0.7571,-5.9389,18.4275,9.8626,77297
12,0.1776,-0.08,0.9094,-34.1832,-7.9924,23.0687,77317
13,0.3255,-0.2384,0.8977,-48.9008,-6.9389,23.374,77337
14,0.4517,-0.3556,0.8835,-51.7328,-1.313,11.6565,77357
15,0.4818,-0.3021,0.8281,-55.9389,23.8092,15.3664,77377
16,0.3279,-0.2972,0.8796,-67.0687,41.1527,27.1298,77397
17,0.2547,-0.3695,0.9287,-78.855,44.6489,38.5954,77417
18,0.2554,-0.4532,0.9268,-81.5496,39.7023,41.7405,77437
19,0.285,-0.504,0.8916,-73.2595,46.2901,50.626,77457
20,0.2908,-0.5228,0.8169,-61.3969,58.6489,77.5725,77477
21,0.2164,-0.5453,0.7942,-57.2061,74.4427,99.1145,77497
22,0.1053,-0.5299,0.7793,-63.9466,77.5954,105.4275,77517
23,0.0386,-0.4969,0.7627,-67.4733,75.0382,113.8473,77537
24,0.0203,-0.5033,0.6987,-70.2824,72.1527,127.5267,77557
25,-0.03,-0.5006,0.6267,-65.1832,76.0687,141.2366,77577
26,-0.0876,-0.4969,0.5735,-57.3969,74.1985,150.9466,77597
27,-0.1384,-0.4515,0.5303,-45.9542,74.2061,161,77617
28,-0.2116,-0.369,0.5056,-36.7557,73.2977,168.9389,77637
29,-0.279,-0.2719,0.4641,-35.3588,68.9084,177.084,77657
30,-0.3437,-0.2484,0.437,-33.7099,62.916,181.2061,77677
31,-0.4018,-0.2242,0.4431,-23.1756,57.6412,176.7939,77697
32,-0.4501,-0.2321,0.4836,-1.2137,46.3588,166.5496,77717
33,-0.4284,-0.1156,0.3899,27.5725,44.8779,162.0458,77737
34,-0.434,0.0304,0.3254,37.9618,58.0305,164.7786,77757
35,-0.5378,0.1005,0.3484,31.7176,67.7252,165.3512,77777
36,-0.6345,0.036,0.3816,16.5191,52.1832,162.4046,77797
37,-0.6286,0.059,0.3701,10.4733,34.9695,157.6794,77817
38,-0.5778,0.0743,0.3284,9.4198,32.9542,159.5725,77837
39,-0.569,0.1151,0.2722,12.0458,40.6031,154.4809,77857
40,-0.6169,0.1537,0.2781,16.1603,48.1756,149.855,77877
41,-0.683,0.1923,0.3152,25.4809,40.8244,158.2137,77897
42,-0.6367,0.2633,0.2576,39.1985,36.3435,158.7557,77917
43,-0.621,0.3761,0.2393,45.771,44.3053,164.3359,77937
44,-0.6623,0.3888,0.2771,47.1221,48.458,165.4122,77957
45,-0.6738,0.4359,0.2905,48.7099,47.1832,157.5038,77977
46,-0.6457,0.4623,0.2485,55.6641,46.8321,152.8626,77997
47,-0.6225,0.5729,0.1882,63.8931,56.0458,151.8321,78017
48,-0.6718,0.7094,0.2327,67.7634,62.1908,145.626,78037
49,-0.6882,0.7311,0.2185,67.3664,49.2519,136.8092,78057
50,-0.6196,0.7108,0.1504,75.7252,42.2137,121.7863,78077
51,-0.6205,0.7772,0.1206,89.4046,45.8168,108.916,78097
52,-0.6801,0.8756,0.1931,82.9695,31.5267,96.0229,78117
53,-0.6357,0.9186,0.1482,54.0458,14.7863,80.1069,78137
54,-0.6308,0.8497,0.1194,17.1756,1.2977,60.8168,78157
55,-0.6464,0.8964,0.1758,-9.8244,-9.7557,48.374,78177
56,-0.6215,0.8844,0.2187,-15.3817,-21.0916,35.5191,78197
57,-0.5493,0.8331,0.1677,-0.4656,-16.2366,27.2748,78217
58,-0.5803,0.8768,0.1614,12.8321,-5.0534,29.1603,78237
59,-0.6257,0.9093,0.2063,3.8855,-1.5496,26.771,78257
60,-0.6413,0.9054,0.2268,-8.3588,-9.0153,21.2366,78277
61,-0.6003,0.9254,0.1907,-6.771,-10.5267,16.2748,78297
62,-0.5475,0.8905,0.1426,11.9924,-3.8931,11.855,78317
63,-0.5624,0.8685,0.2092,32.0992,8.5344,13.0153,78337
64,-0.6223,0.8868,0.2524,52.1679,16,5.0076,78357
65,-0.6542,0.9923,0.2458,49.4427,18.8244,8.5725,78377
66,-0.6511,0.9618,0.1636,33.687,25.5573,13.0687,78397
67,-0.6567,0.964,0.0994,26.8168,28.8244,15.9924,78417
68,-0.6611,0.9564,0.0869,19.2137,25.5114,19.5878,78437
69,-0.6713,0.9332,0.0876,19.3053,18.8244,19.0458,78457
70,-0.6542,0.9423,0.0686,23.5191,12.5496,16.8397,78477
71,-0.6581,0.9755,0.0615,23.2748,6.855,15.7863,78497
72,-0.6379,0.9906,0.0718,19.4504,3.5573,12.3359,78517
73,-0.6454,0.994,0.1055,10.6183,0.6794,6.2595,78537
74,-0.6254,0.9926,0.0815,-0.1298,-0.7481,-0.855,78557
75,-0.6298,1.014,0.0654,-9.9084,-1.374,-5.626,78577
76,-0.6257,0.9865,0.0649,-18.8015,-4.6641,-10.6107,78597
77,-0.6486,0.9481,0.0842,-18.3282,-10.1298,-13.3359,78617
78,-0.6413,0.9562,0.106,-18.0992,-15.1908,-14.1221,78637
79,-0.6733,0.9281,0.1169,-14.9924,-22.1832,-18.6565,78657
80,-0.6735,0.9987,0.1052,-18.1221,-28.9771,-22.0458,78677
81,-0.6664,0.9681,0.1162,-27.9084,-32.6031,-23.3206,78697
82,-0.6413,0.911,0.124,-30.2519,-33.6183,-23.0229,78717
83,-0.6247,0.8668,0.1414,-26.1221,-28.5725,-20.687,78737
84,-0.6301,0.8693,0.1304,-14.5191,-20.8168,-14.7939,78757
85,-0.6166,0.9012,0.1243,-4.2443,-7.855,-3.9542,78777
86,-0.5827,0.8954,0.1152,2.6947,9.5496,7.8168,78797
87,-0.5671,0.8912,0.1248,13.8321,35.0153,14.6183,78817
88,-0.6489,0.8414,0.1707,25.0534,44.4427,18.5878,78837
89,-0.6877,0.943,0.166,26.4046,38.458,19.9542,78857
90,-0.6743,0.9843,0.1135,13.9084,29.6641,20.5802,78877
91,-0.6608,0.9484,0.073,8.7786,25.1603,16.7099,78897
92,-0.664,0.9193,0.0923,16.6412,23.0611,12.2214,78917
93,-0.6645,0.9576,0.0874,25.313,19.7634,10.4885,78937
94,-0.6884,0.9532,0.0901,24.2748,12.7099,7.1832,78957
95,-0.675,1.006,0.0579,12.7863,4.0763,3.9542,78977
96,-0.6813,1.015,0.0571,-2.7252,0.3817,0.7481,78997
97,-0.6542,0.9801,0.0527,-9.1603,-0.5649,-2.084,79017
98,-0.655,0.9591,0.083,-5.7252,-4.6947,-5.6565,79037
99,-0.6454,0.9323,0.0967,0.5802,-7.855,-6.9924,79057
100,-0.666,0.9318,0.0981,4.7786,-13.1298,-7.4427,79077
101,-0.6721,0.9418,0.0798,4.855,-14,-10.7481,79097
102,-0.6782,0.9926,0.0947,-0.5802,-17.9771,-16.2824,79117
103,-0.6606,0.9596,0.0688,-9.084,-21.7939,-20.5573,79137
104,-0.6469,0.9474,0.0823,-18.2443,-21.9924,-18.0153,79157
105,-0.6445,0.9176,0.1013,-21.5267,-20.2519,-14.3664,79177
106,-0.6474,0.9015,0.1189,-24.3969,-17.6794,-9.2824,79197
107,-0.6413,0.8622,0.1213,-20.5344,-14.3435,-3.9466,79217
108,-0.624,0.8744,0.0908,-9.2824,-3.0534,2.2137,79237
109,-0.6279,0.9003,0.0771,2.9389,10.6641,10.2595,79257
110,-0.6496,0.91,0.1208,8.2901,17.9695,15.5725,79277
111,-0.6664,0.9479,0.1301,5.5496,20.1756,15.916,79297
112,-0.6699,0.9608,0.1128,-2.374,20.0305,15.9008,79317
113,-0.6508,0.9496,0.0945,-4.2214,20.458,16.3435,79337
114,-0.6511,0.9113,0.0925,1.084,21.2672,15.7863,79357
115,-0.674,0.9391,0.0955,8.9618,18.0916,14.0305,79377
116,-0.6655,0.9515,0.0867,10.2061,13.3206,13.3206,79397
117,-0.654,0.9554,0.0757,10.8015,9.8397,11.855,79417
118,-0.6577,0.9574,0.0823,7.9084,5.7863,9.3206,79437
119,-0.6616,0.9777,0.0962,2.771,-0.7786,3.1679,79457
120,-0.6684,0.9818,0.1003,-1.1069,-6.8702,-3.1603,79477
121,-0.6423,0.9891,0.0833,-2.6336,-10.084,-5.9695,79497
122,-0.6469,0.9442,0.0781,-2.8397,-13.1221,-8.4275,79517
123,-0.6581,0.9213,0.0947,0.0382,-19.0305,-11.8473,79537
124,-0.6696,1.0265,0.0884,-6.8168,-26.6489,-10.6107,79557
125,-0.6284,0.9811,0.0767,-21.9237,-23.8702,-10.6031,79577
126,-0.6166,0.8995,0.1106,-16.687,-17.2366,-8.4885,79597
127,-0.5995,0.8981,0.1042,-1.9771,-4.9924,-1.1527,79617
128,-0.6154,0.9259,0.1172,3.1832,5.0763,9.0229,79637
129,-0.6105,0.8959,0.1226,3.5649,13.7481,12.6412,79657
130,-0.6288,0.9005,0.125,14.229,19.0992,12.4809,79677
131,-0.6491,0.9923,0.1133,15.4351,18.313,14.8473,79697
132,-0.6489,1.0221,0.0825,6.7099,12.7252,13.1374,79717
133,-0.6242,0.9786,0.0798,2.7176,13.374,11.0458,79737
134,-0.6371,0.9491,0.1062,7.1832,14.3893,10.4275,79757
135,-0.6432,0.9569,0.1082,11.6718,13.6489,9.1069,79777
136,-0.6362,0.9799,0.0698,12.229,9.7557,8.1069,79797
137,-0.6413,0.9742,0.0649,8.6718,5.7786,5.7939,79817
138,-0.6525,0.9669,0.0779,7.1221,-0.626,0.6794,79837
139,-0.6223,0.9576,0.0552,6.229,-4.0687,-4.8779,79857
140,-0.624,0.9716,0.0515,12.3588,0.6336,-10.5954,79877
141,-0.6425,1.0548,0.0715,6.5267,0.2595,-13.3282,79897
142,-0.6596,1.0099,0.1101,-5.1527,-6.3817,-16.2443,79917
143,-0.6708,0.9491,0.123,-6.3053,-18.2672,-19.7328,79937
144,-0.6701,0.9774,0.0786,-6.7176,-28.5267,-20.1298,79957
145,-0.6354,0.9703,0.0435,-9.1832,-30.3511,-18.4198,79977
146,-0.6369,0.9218,0.0654,-6.5115,-27.2137,-17.1069,79997
147,-0.6315,0.9235,0.1016,-3.7405,-20.1221,-14,80017
148,-0.6403,0.9308,0.1206,-6.5802,-12.1298,-8.626,80037
149,-0.6266,0.9296,0.0928,-8.229,0.0687,-2.7023,80057
150,-0.6196,0.9274,0.0674,-1.2061,12.7939,6.145,80077
151,-0.6298,0.9376,0.1169,2.1069,19.4351,13.542,80097
152,-0.6535,0.923,0.1113,8.2901,21.7634,14.7939,80117
153,-0.6672,0.9869,0.1018,6.2824,17.3511,16.5496,80137
154,-0.6491,0.9813,0.0876,-1.5878,14.7786,15.0382,80157
155,-0.6252,0.951,0.0791,-2.0458,15.4427,13.9924,80177
156,-0.6328,0.942,0.0801,1.8931,16.6107,14.7786,80197
157,-0.6408,0.9454,0.0864,6.1069,14.3588,13,80217
158,-0.6459,0.955,0.0808,8.3053,10.0076,9.0534,80237
159,-0.6564,0.9674,0.0857,7.3511,4.1756,2.3206,80257
160,-0.6645,0.9967,0.0862,3.3969,-4.2977,-5.9542,80277
161,-0.6486,0.9913,0.0652,-1.7557,-9.1069,-10.8626,80297
162,-0.6423,0.9908,0.0647,-4.0916,-11.3969,-11.4275,80317
163,-0.6494,0.9703,0.0811,-3.855,-11.9389,-11.5038,80337
164,-0.6447,0.9403,0.092,-2.229,-13.5496,-10.1908,80357
165,-0.6559,0.9413,0.1074,-0.0229,-13.916,-10.8931,80377
166,-0.6555,0.9642,0.0908,-1.7634,-16.4504,-11.7939,80397
167,-0.6371,0.9454,0.0688,-4.4427,-15.1145,-11.8702,80417
168,-0.6467,0.9122,0.0999,-0.9695,-13.6718,-10.6794,80437
169,-0.6494,0.9286,0.1189,0.2672,-11.2748,-8.1374,80457
170,-0.6511,0.9293,0.1052,-0.8168,-10.5038,-5.1832,80477
171,-0.6274,0.9467,0.0933,-2.2137,-6.145,-1.3359,80497
172,-0.6315,0.9379,0.0955,-0.9389,1.2061,3.2672,80517
173,-0.6415,0.934,0.1284,-1.2214,6.4504,6.6336,80537
174,-0.6454,0.9327,0.125,2.3282,9.6718,5.6031,80557
175,-0.6489,0.9645,0.1094,0.542,9.374,7.9618,80577
0,0.1265,-0.1271,1.002,1.6031,9.5267,8.7099,83057
1,0.2523,-0.1254,0.8667,0.374,8.6336,10.1756,83077
2,0.244,-0.1166,0.8401,-0.4427,5.6336,2.9771,83097
3,0.2779,-0.1034,0.8445,0.3664,8.8779,1.0229,83117
4,0.2645,-0.1134,0.8489,0.626,8.7557,0.8855,83137
5,0.2576,-0.1132,0.865,-0.1832,3.9237,2.0611,83157
6,0.2505,-0.1083,0.8467,0.0916,0.4351,2.5725,83177
7,0.2535,-0.0992,0.8496,-0.6718,-0.4122,4.2519,83197
8,0.2413,-0.1246,0.8708,-3.0916,-6.0687,2.855,83217
9,0.254,-0.1473,0.8899,-1.0992,-11.7023,-4.687,83237
10,0.2484,-0.0809,0.864,1.7634,-16.4351,-13.9313,83257
11,0.5081,-0.222,0.4885,-6.4809,-5.4885,-12.1221,83277
12,0.3184,-0.1986,0.8884,-7.4046,-14.9771,-19.542,83297
13,0.2952,-0.0951,0.8438,0.4427,1.1908,-9.374,83317
14,0.0992,-0.0829,0.9995,-11.6412,-5.5802,-12.1527,83337
15,0.3704,0.0182,0.8491,-39.8855,-5.3359,-8.6794,83357
16,0.4039,-0.1744,0.9131,-48.1298,16.4198,8.5954,83377
17,0.4261,-0.2274,0.9033,-50.1908,27.4198,6.5802,83397
18,0.4322,-0.2802,0.8474,-53.5649,39.2595,4.5344,83417
19,0.3807,-0.1989,0.9153,-59.7786,44.6336,13.8321,83437
20,0.3416,-0.1974,0.9194,-70.0687,48.8779,30.7481,83457
21,0.2977,-0.3073,0.9397,-72.5573,56.145,47.8244,83477
22,0.3187,-0.3815,0.9236,-69.8931,62.0382,57.4046,83497
23,0.2725,-0.3903,0.8889,-73.7176,69.8397,67.6183,83517
24,0.1754,-0.3944,0.8496,-83.9237,75.3969,79.4504,83537
25,0.1275,-0.4464,0.8259,-91.5496,80.5802,92.2214,83557
26,0.0596,-0.4918,0.7866,-89.8092,78.7634,100.0076,83577
27,0.0445,-0.5143,0.7134,-75.7252,80.5038,109.0305,83597
28,0.0071,-0.4757,0.6455,-58.6947,84.2519,118.313,83617
29,-0.069,-0.4364,0.605,-51.4198,86.6641,130.1679,83637
30,-0.1357,-0.381,0.5674,-49.9237,85.8473,142.3206,83657
31,-0.1984,-0.4227,0.561,-52.0763,80.5954,148.8702,83677
32,-0.2245,-0.423,0.4976,-48.4656,73.2061,150.7939,83697
33,-0.2477,-0.3534,0.4612,-39.0305,70.6641,153.8855,83717
34,-0.3061,-0.2596,0.3938,-32.1985,71.3588,157.458,83737
35,-0.3769,-0.1674,0.3584,-31.9313,73.2443,162.855,83757
36,-0.4538,-0.1342,0.3679,-31.8779,66.8244,167.0229,83777
37,-0.5007,-0.1605,0.3652,-20.4427,55.7481,153.0916,83797
38,-0.4938,-0.0902,0.3059,-7.3435,47.2519,152.6794,83817
39,-0.5063,0.0363,0.2686,-0.7557,53.687,154.4046,83837
40,-0.58,0.0629,0.3047,6.5954,60.3435,147.4657,83857
41,-0.6572,0.0009,0.3398,7.3588,45.9084,143.8244,83877
42,-0.6674,0.0792,0.3291,15.0153,34.7786,138.2214,83897
43,-0.6599,0.1219,0.2766,26.313,27.8168,142.771,83917
44,-0.6567,0.1744,0.2517,26.9466,29.4275,148.0763,83937
45,-0.665,0.2321,0.2095,18.771,41.3282,146.0153,83957
46,-0.7866,0.2731,0.293,13.5191,37.374,151.8092,83977
47,-0.8254,0.2316,0.3364,21.8244,9.1908,147.6031,83997
48,-0.6865,0.3612,0.2275,37.6489,-0.1985,147.2901,84017
49,-0.6235,0.4464,0.1531,47.0153,23.0763,151.7099,84037
50,-0.7307,0.4574,0.2893,55.1069,33.1145,145.6794,84057
51,-0.7682,0.4816,0.3259,55.3206,20.0305,138.2519,84077
52,-0.6992,0.6027,0.2625,48.9542,14.9924,132.4809,84097
53,-0.6752,0.7233,0.217,38.855,22.6107,137.9008,84117
54,-0.7138,0.7684,0.2371,31.3664,22.0687,136.8702,84137
55,-0.6933,0.7213,0.2415,29.542,15.9084,128.2366,84157
56,-0.6403,0.6818,0.1997,37.1756,13.2137,115.2672,84177
57,-0.6306,0.7809,0.1375,36.7786,17.3206,103.1679,84197
58,-0.6745,0.8693,0.1689,18.9084,6.9008,90.4885,84217
59,-0.632,0.8634,0.2029,-5.2595,-10.1221,75.0305,84237
60,-0.559,0.8048,0.1587,-18.9237,-13.458,60.8779,84257
61,-0.571,0.806,0.1436,-15.3282,-9.1679,54.374,84277
62,-0.6205,0.8666,0.2383,-13.7786,-14.3359,50.7252,84297
63,-0.5859,0.8502,0.251,-12.4351,-19.3511,45.7405,84317
64,-0.5412,0.8368,0.2288,-3.5344,-9.6794,39.0687,84337
65,-0.5414,0.8558,0.2278,7.374,4.0229,35.1603,84357
66,-0.5847,0.8737,0.312,19.6489,10.6718,29.229,84377
67,-0.602,0.892,0.3193,21.7786,11.4656,23.229,84397
68,-0.5922,0.922,0.2971,20.1985,6.2901,15.9313,84417
69,-0.5488,0.9445,0.1777,16.7786,8.0229,11.7939,84437
70,-0.5663,0.9567,0.1875,9.1756,11.8855,13.5115,84457
71,-0.5778,0.9371,0.2202,7.4122,17.313,12.1221,84477
72,-0.5834,0.8929,0.2817,7.4275,18.7023,12.7863,84497
73,-0.5429,0.8856,0.2302,24.0611,29.4351,11.9847,84517
74,-0.6049,0.9017,0.2051,32.9313,37.8015,18.6412,84537
75,-0.6349,0.9276,0.1953,34.7099,32.1832,19.7863,84557
76,-0.6108,0.9391,0.1724,40.687,33.4198,22.313,84577
77,-0.6091,0.9884,0.1631,50.2824,34.6718,23.1603,84597
78,-0.6291,1.0458,0.1758,44.3588,31.084,20.2214,84617
79,-0.6486,1.0675,0.1423,26.6336,19.0458,8.8931,84637
80,-0.6747,1.0624,0.1365,3.4351,11.4275,3.8931,84657
81,-0.654,1.0304,0.1282,-9.8702,6.1374,-1.4198,84677
82,-0.6328,1.0084,0.1084,-9.5344,1.4885,-5.7176,84697
83,-0.6432,1.015,0.1123,-8.2595,-3.3588,-7.2443,84717
84,-0.6428,0.9852,0.124,-10.229,-10.7099,-8.3206,84737
85,-0.645,0.9606,0.1384,-12.7634,-16.5725,-11.0076,84757
86,-0.6718,0.9967,0.1321,-14.3511,-25.0382,-16.2366,84777
87,-0.6337,1.0509,0.1021,-25.6489,-30.9084,-17.9695,84797
88,-0.6201,0.9594,0.1426,-33.4046,-33.2595,-19.9771,84817
89,-0.5976,0.8917,0.1665,-26.9847,-31.5496,-19.8626,84837
90,-0.602,0.8866,0.198,-15.3588,-23.2061,-14.8168,84857
91,-0.5898,0.9142,0.1733,-8.8702,-15.2824,-6.3588,84877
92,-0.6039,0.8988,0.1499,-4.3359,-4.9618,3.5344,84897
93,-0.5761,0.8922,0.1545,9.2824,5.5038,3.6565,84917
94,-0.6149,0.9908,0.189,13.5649,14.9847,6.3282,84937
95,-0.6594,0.9882,0.2214,4.0687,8.1374,6.542,84957
96,-0.6164,0.9882,0.2036,-6.2977,4.7099,6.8015,84977
97,-0.6042,0.9447,0.1809,-8.9237,8.1679,9.2824,84997
98,-0.6008,0.9266,0.1587,1.8397,15.0611,9.7481,85017
99,-0.6017,0.962,0.158,11.5954,20,11.5191,85037
100,-0.6262,0.975,0.1714,14.4122,18.9008,11.9466,85057
101,-0.6364,0.9945,0.1904,9.458,13.8931,9.374,85077
102,-0.6288,1.0079,0.188,4.3053,6.8626,3.0305,85097
103,-0.6376,1.0157,0.1548,0.7405,2.2443,-3.4885,85117
104,-0.6562,1.0155,0.1548,-1.5649,-6.6107,-10.5802,85137
105,-0.6401,1.0355,0.1565,-14.4351,-10.3893,-13.2366,85157
106,-0.6579,1.0245,0.1853,-33.3817,-13.9618,-14.2824,85177
107,-0.6481,0.9745,0.1943,-45.916,-19.0611,-13.6794,85197
108,-0.6276,0.9059,0.1753,-40.6183,-17.6489,-12.626,85217
109,-0.6264,0.8263,0.2002,-18.8244,-15.8702,-14.1603,85237
110,-0.6474,0.8866,0.1858,7.1908,-13.1679,-14.4733,85257
111,-0.6537,0.9633,0.1731,10.4733,-15.0382,-11.229,85277
112,-0.622,0.9506,0.1609,0.8092,-13.9847,-9.6183,85297
113,-0.6315,0.8956,0.2024,-4.4275,-11.9695,-8.9008,85317
114,-0.6262,0.8998,0.2227,-1.2977,-8.7786,-7.0687,85337
115,-0.6142,0.8983,0.2124,5.3664,-5.3053,-3.3359,85357
116,-0.6147,0.9498,0.1799,18.9618,-2.2977,7.1679,85377
117,-0.6379,1.069,0.2434,12.0534,1.9466,25.5496,85397
118,-0.6589,0.8754,0.2249,0.229,-9.0992,25.6183,85417
119,-0.5825,0.8448,0.198,14.7939,-12.7252,18.9771,85437
120,-0.5627,0.9379,0.209,20.3817,-1.2824,18.0992,85457
121,-0.6369,1.0363,0.252,5.458,2.0687,18.4962,85477
122,-0.6125,1.0219,0.2512,-15.3969,3.7176,13.6489,85497
123,-0.5788,0.91,0.2217,-15.4275,12.5954,10.9618,85517
124,-0.592,0.8788,0.2153,8.2137,23.3053,13.7328,85537
125,-0.6213,0.9425,0.2075,21.4198,25.0992,17.5038,85557
126,-0.6257,0.9828,0.1836,23.2901,21.3053,15.7023,85577
127,-0.6164,1.016,0.1729,19.374,17.8092,12.0076,85597
128,-0.6154,1.0182,0.1653,12.6794,12.6641,6.1527,85617
129,-0.6149,1.0128,0.1719,7.7939,8.7786,-3.8092,85637
130,-0.6174,1.0111,0.1711,2.0687,6.7252,-13.3359,85657
131,-0.614,1.016,0.1716,-6.2748,3.542,-19.4504,85677
132,-0.6369,0.9769,0.187,-12.1374,-1.9924,-21.4198,85697
133,-0.6425,0.9982,0.1785,-14.687,-8.6947,-20.5954,85717
134,-0.6376,0.9801,0.1865,-21.1908,-15.6794,-16.6107,85737
135,-0.6113,0.9171,0.1807,-15.9008,-15.7023,-17.1221,85757
136,-0.611,0.9161,0.2021,-3.6718,-11.7557,-16.8397,85777
137,-0.6318,0.974,0.1948,0.7557,-10.084,-17.6794,85797
138,-0.643,1.0143,0.199,-8.9313,-14.6794,-17.2824,85817
139,-0.6281,0.9659,0.2153,-22.4275,-18.1298,-15.6565,85837
140,-0.614,0.8837,0.2114,-23.2137,-17.2901,-15.7786,85857
141,-0.6057,0.859,0.2063,-10.6718,-11.2824,-11.7634,85877
142,-0.6096,0.8929,0.1992,3.9466,-2.1221,-4.2137,85897
143,-0.6266,0.9352,0.1919,14.4046,4.9389,9.2901,85917
144,-0.6284,1.0067,0.2004,13.9389,9.855,28.1374,85937
145,-0.6611,0.973,0.2566,-3.2519,7.2519,36.4351,85957
146,-0.632,0.8446,0.2327,-2.4427,-0.7863,27.9771,85977
147,-0.5998,0.9298,0.2036,6.9237,4.3435,24.2824,85997
148,-0.6276,1.0302,0.2297,1.2214,8.4275,21.4122,86017
149,-0.6144,1.0038,0.2266,-10.8473,8.1374,17.374,86037
150,-0.5959,0.9281,0.2261,-10.2061,12.1069,14.3817,86057
151,-0.6074,0.9193,0.22,-1.4656,12.2977,13.0229,86077
152,-0.6306,0.9613,0.2061,4.2977,7.2672,9.2519,86097
153,-0.6115,0.9789,0.1938,6.8015,0.6336,3.4427,86117
154,-0.6057,0.9935,0.1975,9.0992,-4.3817,-3.9237,86137
155,-0.5974,0.9884,0.2036,7.9466,-7.6031,-12.5725,86157
156,-0.5981,0.972,0.2124,4.0611,-8.4962,-19.9847,86177
157,-0.6149,0.9945,0.231,-0.0458,-10.2214,-24.4809,86197
158,-0.623,1.0399,0.2371,-9.7405,-13.542,-20.4351,86217
159,-0.6171,0.964,0.2366,-15.1069,-16.8626,-16,86237
160,-0.6037,0.9081,0.2229,-8.916,-17.6031,-13.0076,86257
161,-0.6132,0.9127,0.2104,-0.4733,-17.626,-14.1679,86277
162,-0.6181,0.9486,0.2029,-0.9313,-17,-11.6718,86297
163,-0.6203,0.9613,0.2356,-11.0458,-17.0382,-8.2672,86317
164,-0.6115,0.9393,0.25,-16.626,-13.4275,-4.7481,86337
165,-0.593,0.901,0.2363,-12.4046,-6.916,-0.5115,86357
166,-0.5761,0.8964,0.2239,2.3893,7.7176,3.1832,86377
167,-0.603,0.9193,0.2341,14.3206,18.7252,9.9847,86397
168,-0.621,0.9271,0.2358,18.8015,24.0534,15.1603,86417
169,-0.6342,0.9447,0.2268,18.3664,23.3206,14.7939,86437
170,-0.6203,0.9991,0.2156,9.6336,20.2595,15.916,86457
171,-0.6037,0.9984,0.2026,-0.0229,17.4656,14.4809,86477
172,-0.5969,0.9447,0.1965,2.0763,15.9389,12.7252,86497
173,-0.5942,0.9237,0.2173,13.2137,16.4198,11.1069,86517
174,-0.6103,0.9603,0.21,21.7328,15.3664,9.4427,86537
175,-0.6135,1.0043,0.2075,20.1298,10.9924,7.2595,86557
0,0.347,-0.1998,0.7756,3.0458,5.4046,-6.3969,89117
1,0.3734,-0.1906,0.8005,0.8397,4.5649,-1.313,89137
2,0.3729,-0.1735,0.7847,-2.9771,3.2977,-1.7634,89157
3,0.3677,-0.1854,0.7834,-4.2595,1.855,-4.9847,89177
4,0.377,-0.1783,0.7715,-4.3588,2.3664,-5.3588,89197
5,0.3777,-0.1786,0.7542,-3.2672,3.2901,-1.313,89217
6,0.3782,-0.1969,0.7837,-0.5649,2.7863,5.2748,89237
7,0.3829,-0.2162,0.8062,-0.542,-0.3359,8.2061,89257
8,0.408,-0.236,0.8237,-1.8015,-0.0382,7.4504,89277
9,0.4371,-0.2384,0.8259,-2.5649,10.8626,1.6107,89297
10,0.4188,-0.0626,0.7969,-0.374,29.2443,0.3893,89317
11,0.2684,0.0802,0.8301,-7.2137,22.5114,3.3435,89337
12,0.1776,0.3073,0.9448,-50.8473,39.9771,60.687,89357
13,0.2066,-0.2377,0.8645,-85.1145,-2.4809,61.1603,89377
14,0.4354,-0.4105,0.7844,-79.7328,-1.6107,41.542,89397
15,0.5089,-0.5531,0.802,-53.8321,17.8779,22.2901,89417
16,0.4905,-0.4574,0.7852,-50.5191,31.7557,7.7557,89437
17,0.5079,-0.3534,0.7903,-73.7099,51.1145,29.7481,89457
18,0.3848,-0.473,0.7329,-96.1145,60.3435,54.7634,89477
19,0.2762,-0.7504,0.7883,-86.5954,64.916,72.8702,89497
20,0.2798,-0.7418,0.7605,-44.3435,75.5038,76.1985,89517
21,0.1805,-0.6151,0.759,-11.3588,83.2672,83.0382,89537
22,0.1092,-0.4952,0.7241,-7.3969,86.1679,97.5573,89557
23,0.0633,-0.4569,0.6797,-21.7786,86.6183,113.1679,89577
24,-0.0041,-0.5206,0.6763,-33.3511,81.7176,122.9389,89597
25,-0.0505,-0.5699,0.6582,-21.8321,75.6718,129.4427,89617
26,-0.0314,-0.4943,0.5566,-5.0534,77.7099,141.7863,89637
27,-0.0952,-0.3802,0.51,0.9924,82.7405,155.7328,89657
28,-0.256,-0.295,0.5344,-11.9542,76.8626,167.9084,89677
29,-0.3095,-0.3058,0.4565,-15.3817,59.6565,163.8321,89697
30,-0.2504,-0.1903,0.3872,-22.3969,55.0534,171.3206,89717
31,-0.3542,-0.1185,0.4644,-47.0458,55.771,181.7176,89737
32,-0.4841,-0.1266,0.4673,-63.6641,43.7328,176.2977,89757
33,-0.5405,-0.2115,0.4075,-49.9847,22.5649,165.3588,89777
34,-0.4733,-0.2089,0.3708,-25.542,6.4427,168.1603,89797
35,-0.3964,-0.0641,0.335,-0.2519,22.4733,169.8626,89817
36,-0.4785,-0.024,0.4006,15.6565,41.9924,171.8931,89837
37,-0.5751,0.006,0.4414,24.5725,40.4351,167.4962,89857
38,-0.5829,0.0209,0.4148,38.6336,23.8168,159.1832,89877
39,-0.5361,0.0822,0.3376,52.4656,18.5573,153.3512,89897
40,-0.5126,0.1547,0.3027,67.9695,31.2901,159.9008,89917
41,-0.5663,0.225,0.334,78.7634,47.4275,159.6107,89937
42,-0.621,0.3466,0.3557,77.6412,55.2061,152.4198,89957
43,-0.6926,0.4252,0.3667,61.4275,50.1985,158.1221,89977
44,-0.7162,0.4005,0.3445,57.3969,37.3359,151.1145,89997
45,-0.6572,0.4078,0.2781,70.5573,35.6107,140.5802,90017
46,-0.6191,0.6046,0.2664,81.3664,51.8397,141.1756,90037
47,-0.6884,0.6512,0.3359,74.7939,54.6183,137.8092,90057
48,-0.7551,0.6302,0.3313,60.7863,37.0763,122.145,90077
49,-0.7263,0.7032,0.2954,47.687,21.8931,107.5725,90097
50,-0.6874,0.7772,0.2429,35.0611,18.5725,92.1985,90117
51,-0.7116,0.8297,0.2822,20.0534,11.4351,84.458,90137
52,-0.6901,0.7596,0.2983,2.9771,-2.0458,73.3359,90157
53,-0.653,0.7255,0.3083,-4.9466,-7.5038,64.4962,90177
54,-0.5947,0.7106,0.2297,-2.5802,-5.9313,58.4809,90197
55,-0.6118,0.7374,0.2998,1.0763,-1.3893,54.4733,90217
56,-0.6328,0.808,0.3206,-2.7939,-6.8244,52.9771,90237
57,-0.5925,0.7753,0.3142,-3.7023,-9.7786,47.8397,90257
58,-0.5685,0.7772,0.2712,-0.5496,-4.1527,38.7939,90277
59,-0.5847,0.807,0.2952,2.3053,-0.5573,30.9847,90297
60,-0.5971,0.9012,0.3496,-6.1221,-3.2748,25.4733,90317
61,-0.5986,0.8981,0.3362,-25.626,-10.0916,20.855,90337
62,-0.5864,0.899,0.3477,-42.2443,-14.2748,16.2519,90357
63,-0.5729,0.8146,0.3411,-42.4351,-9.7786,10.084,90377
64,-0.5527,0.765,0.335,-19.542,0.8473,5.1145,90397
65,-0.5598,0.7753,0.3286,4.2824,11.6183,5.5878,90417
66,-0.5873,0.8207,0.3291,15.3053,19.2824,8.458,90437
67,-0.6315,0.8817,0.3328,13.7023,14.7634,9.4733,90457
68,-0.6035,0.881,0.3096,3.5191,11.9771,12.7099,90477
69,-0.6147,0.8251,0.324,0.0992,15.4046,14.3206,90497
70,-0.6188,0.7953,0.3408,11.4275,18.5802,9.2137,90517
71,-0.6186,0.8488,0.3374,22.7481,19.7786,9.4198,90537
72,-0.6296,0.882,0.2888,27.9389,23.8855,8.313,90557
73,-0.6498,0.9044,0.2769,21.5344,23.7786,12.458,90577
74,-0.6638,0.9191,0.3411,12.2519,18.5191,12.5878,90597
75,-0.6918,0.9161,0.2842,11.1832,9.9847,6.6031,90617
76,-0.6725,0.9222,0.2856,3.2443,1.1069,1.313,90637
77,-0.6703,0.9298,0.2878,0.0076,-6.9771,-8.9847,90657
78,-0.6608,0.9264,0.2471,-7.2366,-12.3969,-14.3053,90677
79,-0.6591,0.9081,0.272,-15.7328,-17.7099,-15.6565,90697
80,-0.624,0.8676,0.3083,-18.7405,-17.0229,-15.5649,90717
81,-0.6486,0.8265,0.3181,-13.1527,-18.0534,-14.6641,90737
82,-0.6557,0.8351,0.312,-4.8015,-20.4886,-14.3511,90757
83,-0.6596,0.9,0.2954,-3.4504,-22.145,-15.8779,90777
84,-0.6611,0.9286,0.2861,-13.2519,-24.3893,-16.5344,90797
85,-0.6479,0.8876,0.3064,-25.9695,-27.9466,-17.3893,90817
86,-0.6122,0.8151,0.334,-32.7328,-27.1679,-17.8931,90837
87,-0.6159,0.7831,0.3396,-32.9237,-19.7328,-13.4122,90857
88,-0.6132,0.8029,0.3394,-29.7252,-9.145,-6.3817,90877
89,-0.5947,0.7379,0.3333,-20.9313,5.3206,0.7634,90897
90,-0.6052,0.7191,0.3491,-0.458,19.8931,5.6718,90917
91,-0.6506,0.7975,0.3643,11.1069,26.0916,12.2366,90937
92,-0.6762,0.8412,0.3647,7.4885,23.4733,13.145,90957
93,-0.6542,0.8463,0.3071,4.8779,21.5344,10.2672,90977
94,-0.6489,0.8527,0.3132,1.8092,19.7557,11.5344,90997
95,-0.6647,0.8099,0.3381,2.1527,16.8244,10.5496,91017
96,-0.6664,0.8361,0.3352,2.6565,14.1908,8.4733,91037
97,-0.6616,0.8392,0.3306,1.9084,13.4427,4.9313,91057
98,-0.652,0.8612,0.2981,3.6412,12.4504,2.4962,91077
99,-0.6516,0.8671,0.2839,0.7023,11.3511,1.4809,91097
100,-0.6872,0.8414,0.29,-3.313,8.3893,-1.8473,91117
101,-0.6891,0.8531,0.3066,-9.6565,6.1221,-4.2366,91137
102,-0.6801,0.8195,0.3342,-13.626,6.2748,-4.4275,91157
103,-0.6977,0.7897,0.3379,-7.8855,2.2519,-5.8931,91177
104,-0.6777,0.8019,0.3254,-1.8168,-3.6794,-7,91197
105,-0.6613,0.8075,0.293,3.229,-4.1298,-6.916,91217
106,-0.6533,0.806,0.3113,6.1908,-4.6336,-6.6794,91237
107,-0.6525,0.8287,0.3213,9.1221,-5.9618,-7.7863,91257
108,-0.6569,0.838,0.322,9.1145,-12.0458,-10.6718,91277
109,-0.6508,0.8624,0.3186,4.0076,-18.0534,-11.7328,91297
110,-0.6569,0.8248,0.3186,0.3359,-21.1985,-15.0305,91317
111,-0.6611,0.8182,0.3132,0.7405,-22.8473,-14.0458,91337
112,-0.6437,0.8231,0.3074,2.3282,-20.0687,-9.2672,91357
113,-0.6349,0.7902,0.3296,-1.5496,-13.6489,-2.4351,91377
114,-0.6342,0.7535,0.3384,-0.3053,-5.7481,0.6107,91397
115,-0.6479,0.7631,0.3521,6.2824,1.5038,2.4351,91417
116,-0.6447,0.8351,0.324,11.3053,7.6641,3.855,91437
117,-0.6476,0.869,0.3215,6.7328,11.542,6.8626,91457
118,-0.6555,0.8341,0.3467,0.3588,12.0382,7.2061,91477
119,-0.6562,0.8383,0.3271,-0.3969,11.2748,5.3893,91497
120,-0.6552,0.8507,0.3215,-2.0992,12.5649,7.9618,91517
121,-0.6484,0.8304,0.3157,-3.542,14.1985,10.5954,91537
122,-0.6474,0.7955,0.3184,-2.2443,15.2443,12.2214,91557
123,-0.6547,0.7758,0.3157,3.0229,17.0687,13.7557,91577
124,-0.662,0.7992,0.3123,10.6107,18.1221,12.9313,91597
125,-0.6811,0.8695,0.2947,14,16.8702,11.771,91617
126,-0.6848,0.892,0.29,8.458,13.8321,8.0763,91637
127,-0.6848,0.8605,0.3025,-0.1908,8.2061,2.0534,91657
128,-0.6828,0.8375,0.3152,-4.7863,2.6107,-4.3206,91677
129,-0.6821,0.828,0.2861,-1.0153,-1.7252,-10.1756,91697
130,-0.6772,0.8468,0.2791,1.0534,-6.0153,-10.855,91717
131,-0.6662,0.8324,0.2937,-0.6412,-9.0611,-11.8244,91737
132,-0.6843,0.8197,0.2922,-1.3435,-13.3893,-13.3511,91757
133,-0.665,0.8148,0.2732,-3.8779,-15.9771,-11.6947,91777
134,-0.6476,0.8063,0.2891,-2.7786,-13.1069,-9.3969,91797
135,-0.6486,0.7958,0.3054,1.4962,-10.7634,-9.9847,91817
136,-0.664,0.8046,0.3052,6.8244,-9.5267,-12.2214,91837
137,-0.6848,0.8436,0.3206,5.6794,-11.313,-12.1298,91857
138,-0.6725,0.8344,0.3193,-1.5496,-12.7939,-13.5878,91877
139,-0.6745,0.8431,0.3105,-9.5802,-13.0305,-10.8321,91897
140,-0.6623,0.778,0.304,-14.8244,-11.8168,-7.8168,91917
141,-0.6552,0.7545,0.3176,-8.7176,-6.5496,-4.1756,91937
142,-0.6555,0.7479,0.3262,-0.3359,-0.2366,0.3588,91957
143,-0.6623,0.7894,0.3196,5.313,6.084,6.1985,91977
144,-0.6706,0.816,0.321,3.9924,9.7252,11.2519,91997
145,-0.6638,0.8021,0.3157,3.374,13.2595,11.8321,92017
146,-0.662,0.8092,0.3391,4.9084,15.145,9.9695,92037
147,-0.6713,0.8329,0.3328,6.2137,14.2061,9.3664,92057
148,-0.6852,0.8099,0.3357,1.3817,9.2366,7.5344,92077
149,-0.6906,0.828,0.3062,-1.3282,3.6489,4.229,92097
150,-0.6596,0.8112,0.2791,-3.5496,0.3511,3.6489,92117
151,-0.6572,0.795,0.2944,2.6336,2.9618,3.9618,92137
152,-0.6755,0.828,0.3223,6.3282,4.1069,3.9466,92157
153,-0.6823,0.8436,0.3164,2.0534,2.1374,1.8473,92177
154,-0.6806,0.8192,0.3181,-0.8626,0.8015,-0.145,92197
155,-0.6813,0.8121,0.3086,1.4275,-1.1298,-2.3511,92217
156,-0.683,0.8253,0.302,5.4275,-6.1603,-3.626,92237
157,-0.673,0.8409,0.3,4.4504,-12.2061,-4.9695,92257
158,-0.6664,0.8312,0.3108,2.8473,-16.4427,-6.7634,92277
159,-0.6572,0.8224,0.3188,-1.1069,-18.5649,-7.1527,92297
160,-0.6547,0.7865,0.3228,-2.7405,-19.2901,-7,92317
161,-0.6398,0.7904,0.3142,2.3969,-15.7328,-8.8244,92337
162,-0.6462,0.8234,0.3145,4.6412,-9.5878,-7.3511,92357
163,-0.6516,0.808,0.3184,3.3511,-6.1221,-4.1908,92377
164,-0.6586,0.8085,0.3286,1.0153,-2.8321,-1.0611,92397
165,-0.662,0.8046,0.3372,0.1374,-1.2443,3.626,92417
166,-0.6572,0.8199,0.3381,0.7939,1.3588,6.7023,92437
167,-0.6523,0.8185,0.3276,3.0076,5.9084,9.9008,92457
168,-0.6462,0.8229,0.3101,5.3435,13.3969,12.6183,92477
169,-0.6584,0.8192,0.3225,4.5802,18.5802,16.6031,92497
170,-0.6723,0.8219,0.3215,3.8244,16.9924,17.3893,92517
171,-0.6616,0.8158,0.3154,1.0916,14.0153,18.1908,92537
172,-0.6555,0.8033,0.3169,2.7634,12.626,16.7328,92557
173,-0.6657,0.8168,0.3154,10.2214,10.7786,11.7252,92577
174,-0.6542,0.8407,0.3005,15.2519,7.7634,4.5267,92597
175,-0.6545,0.816,0.2812,17.8321,5.9389,-5.9924,92617
0,0.5225,0.0558,0.7292,-0.9924,15.0763,9.4427,94777
1,0.2181,-0.1317,0.8198,-2.5496,6.0687,-7.855,94797
2,0.2471,-0.1659,0.821,-2.0534,6.9847,-9.1756,94817
3,0.2527,-0.1898,0.8115,2.1756,7.0229,-3.3511,94837
4,0.2615,-0.1705,0.8264,1.8626,2.771,-0.8397,94857
5,0.2549,-0.1674,0.8193,-0.4504,-0.084,-0.3053,94877
6,0.2603,-0.1901,0.8455,-1.7023,-2.4504,-0.8626,94897
7,0.2864,-0.1969,0.8442,-2.2672,-4.687,-1.0763,94917
8,0.2982,-0.2272,0.8628,-2.6412,-4.8702,-7.2137,94937
9,0.2752,-0.1478,0.8201,-12.8015,-10.7939,-20.7939,94957
10,0.2401,0.0001,0.9089,-19.5496,1.6336,-6.687,94977
11,0.2098,-0.0831,1.04,-39.1679,-30.2977,24.1679,94997
12,0.3316,-0.0184,0.9719,-73.6565,-20.2748,82.855,95017
13,0.3275,-0.4515,0.8027,-88.1908,3.5115,56.7634,95037
14,0.3748,-0.4398,0.8074,-75.313,23.2824,29.5267,95057
15,0.2706,-0.4713,0.9407,-66.9847,31.7863,17.3664,95077
16,0.338,-0.4838,0.8225,-73.9084,43.4122,28.374,95097
17,0.2652,-0.5253,0.7759,-55.1679,69.9695,47.3817,95117
18,0.1732,-0.4962,0.8376,-33.1908,87.7481,67.7863,95137
19,0.1461,-0.5013,0.8301,-28.313,99.9618,77.5191,95157
20,0.0489,-0.4564,0.8286,-40.0382,98.4198,81.229,95177
21,0.0435,-0.4464,0.7344,-52.5954,96.2748,96.3588,95197
22,-0.0261,-0.5621,0.7302,-49.8244,93.855,106.8473,95217
23,-0.0012,-0.5421,0.6226,-38.0076,93.2137,119.8931,95237
24,-0.1357,-0.4249,0.6011,-16.771,99.4427,132.0229,95257
25,-0.2018,-0.3309,0.5835,-13.2672,92.6565,146.458,95277
26,-0.226,-0.2982,0.543,-22.2824,86.9237,158.8473,95297
27,-0.2531,-0.3468,0.4836,-30.7328,80.8015,173.0382,95317
28,-0.3151,-0.2765,0.4304,-21.5344,83,167.0763,95337
29,-0.4099,-0.1566,0.4011,-13.542,80.3206,162.4657,95357
30,-0.4782,-0.078,0.415,-13.8779,70.2595,164.1985,95377
31,-0.499,-0.0665,0.3953,-22.3282,56.374,160.2672,95397
32,-0.5046,-0.0455,0.3799,-27.916,46.1069,162.1832,95417
33,-0.4948,-0.0636,0.3389,-26.626,43.1374,165.6947,95437
34,-0.5283,-0.0651,0.3455,-6.1145,44.9084,158.4809,95457
35,-0.5419,-0.0082,0.324,21.1221,48.3359,162.4809,95477
36,-0.5314,0.0699,0.2729,32.7176,52.4198,163.9389,95497
37,-0.6052,0.2438,0.2571,27.7634,63.9237,170.4122,95517
38,-0.6918,0.2355,0.2717,13.7634,57.2443,173.1374,95537
39,-0.6599,0.2394,0.2524,12.1298,51.1221,164.2366,95557
40,-0.6733,0.2914,0.2241,18.5344,52.1298,168.7099,95577
41,-0.6979,0.3837,0.1899,27.7557,52.8244,165.542,95597
42,-0.7238,0.4366,0.1719,27.4962,56.7252,169.0687,95617
43,-0.7026,0.4716,0.1528,22.6412,56.626,169.145,95637
44,-0.7145,0.4786,0.1223,32.374,63.4656,158.4427,95657
45,-0.799,0.6398,0.1833,39.0534,49.8092,151.4504,95677
46,-0.7326,0.799,0.1235,26.7099,36.855,145.3512,95697
47,-0.6992,0.7926,0.1172,12.7557,27.8244,135.0611,95717
48,-0.6423,0.7767,0.1433,16.1985,22.3664,118.1069,95737
49,-0.6164,0.8353,0.1719,20.1221,15.6947,101.2137,95757
50,-0.6291,0.8429,0.1855,13.3359,10.6489,84.8473,95777
51,-0.6179,0.8234,0.2146,1.8321,4.3435,69.4657,95797
52,-0.6069,0.8256,0.2019,-8.3359,2.1985,58.5191,95817
53,-0.623,0.8363,0.2393,-15.0916,-4.7863,49.7176,95837
54,-0.6247,0.8473,0.2644,-12.9389,-8.6183,43.5878,95857
55,-0.58,0.8038,0.2019,6.5573,3.2824,38.2901,95877
56,-0.6508,0.85,0.2205,14.7481,16.9924,35.3893,95897
57,-0.6799,0.9423,0.2317,7.6183,16.8168,29.916,95917
58,-0.6537,0.9301,0.1919,-5.542,9.5954,22.8168,95937
59,-0.6135,0.902,0.1416,-7.5802,7.1908,17.2748,95957
60,-0.5934,0.8766,0.1333,-7.5038,7.6947,14,95977
61,-0.6225,0.8666,0.1699,-13.458,1.9695,13.3817,95997
62,-0.6069,0.891,0.1763,-12.8015,0.5344,9.7328,96017
63,-0.562,0.9135,0.1755,-7.7405,7.458,11.7939,96037
64,-0.5988,0.8854,0.177,1.9924,11.4046,9.9618,96057
65,-0.6413,0.8578,0.2217,6.7939,7.2824,8.6183,96077
66,-0.6562,0.8431,0.199,14.8931,11.687,6.6565,96097
67,-0.6362,0.8868,0.1506,28.8779,15.9771,10.2595,96117
68,-0.6447,0.9169,0.1311,34.5191,17.1374,16.1374,96137
69,-0.6567,0.9567,0.1399,29.9008,11.6565,16.6794,96157
70,-0.6542,0.9467,0.1067,20.4962,3.7481,12.9695,96177
71,-0.6364,0.986,0.1042,16.7023,1.3435,8.2519,96197
72,-0.6606,0.9845,0.1213,9.2748,-4.5115,3.1908,96217
73,-0.6772,1.0111,0.1555,1.9542,-10.0229,-0.0305,96237
74,-0.6774,0.9603,0.1494,-5.3893,-14.084,-2.3817,96257
75,-0.6437,0.964,0.0962,-11.8931,-7.7557,-3.3588,96277
76,-0.6677,0.9857,0.0762,-22.2977,-4.0382,-3.2443,96297
77,-0.6962,0.9442,0.1196,-29.6641,-8.0687,-7.229,96317
78,-0.6821,0.9242,0.1443,-22.4427,-15.855,-12.1374,96337
79,-0.6467,0.9037,0.1401,-6.8015,-16.2366,-12.3664,96357
80,-0.6479,0.9025,0.1565,4.1679,-20.5649,-10.4046,96377
81,-0.6447,0.9103,0.1587,7.0305,-20.2443,-8.7939,96397
82,-0.6533,0.9415,0.1489,1.5344,-19.8855,-8.626,96417
83,-0.6486,0.9686,0.1719,-8.7634,-22.9771,-9.5725,96437
84,-0.6254,0.8976,0.1833,-14.1145,-27.3053,-12.6947,96457
85,-0.6044,0.8734,0.189,-4.6641,-19.3664,-13.5954,96477
86,-0.61,0.9257,0.175,2.855,-8.4885,-7.5115,96497
87,-0.612,0.8683,0.1653,4.1832,0.0153,0.0916,96517
88,-0.6188,0.8832,0.1638,6.4962,11.9084,3.855,96537
89,-0.665,0.901,0.1807,3.2595,14.7099,7.7863,96557
90,-0.6586,0.942,0.1921,-1.3435,12.6718,9.374,96577
91,-0.6396,0.9171,0.1465,5.7786,14.8397,10.2366,96597
92,-0.6276,0.9047,0.1572,19.7939,21.4351,12.9389,96617
93,-0.6462,0.9147,0.1772,26.5649,27.3893,20,96637
94,-0.6877,0.9484,0.1848,20.4122,22.8397,23.9695,96657
95,-0.6682,0.9886,0.1709,11.4046,14.7176,26.8321,96677
96,-0.6664,0.9286,0.126,19.6489,4.7023,18.8626,96697
97,-0.6262,0.9845,0.1445,17.0992,5.2901,16.3282,96717
98,-0.6474,0.9811,0.1682,6.4885,0.2443,8.1221,96737
99,-0.6437,0.932,0.1577,-3.8855,-2.2443,1.4809,96757
100,-0.6301,0.9464,0.125,1.2595,-2.3969,-2.2519,96777
101,-0.6264,0.9442,0.1182,10.7786,-4.0458,-2.5344,96797
102,-0.6403,0.954,0.136,14.6641,-8.9008,-5.6565,96817
103,-0.6572,0.9857,0.1318,9.6336,-15.6718,-10.0458,96837
104,-0.6286,1.0216,0.1001,-3.1832,-18.6107,-13.1374,96857
105,-0.6374,0.9718,0.1379,-12.4351,-18.1985,-17.313,96877
106,-0.6528,0.9457,0.1606,-12.3206,-20.1221,-22.313,96897
107,-0.6491,0.963,0.146,-12.8168,-20.9924,-24.7405,96917
108,-0.6437,0.9491,0.1523,-16.1374,-19.4809,-22.9466,96937
109,-0.6479,0.911,0.1794,-19.458,-17.2061,-19.7634,96957
110,-0.6415,0.8861,0.179,-18.8931,-14.6183,-14.855,96977
111,-0.6391,0.8749,0.1746,-11.1603,-9.2061,-9.9237,96997
112,-0.6325,0.8763,0.1833,1.0076,-3.8168,-4.1298,97017
113,-0.6147,0.8851,0.1658,10.6641,3.2901,2.0153,97037
114,-0.6193,0.9369,0.1819,11.3206,11.5878,8.3206,97057
115,-0.6306,0.9398,0.1897,6.0229,14.5038,9.1832,97077
116,-0.6369,0.9047,0.1919,5.9313,14.8168,10.3435,97097
117,-0.6362,0.8917,0.1663,14.3511,18.6794,10.916,97117
118,-0.6489,0.9352,0.1902,18.3053,25.9237,12.7099,97137
119,-0.6772,0.9325,0.2185,23.0076,24.542,11.8321,97157
120,-0.6599,0.9525,0.1833,33.5267,19.5725,9.9008,97177
121,-0.6508,0.9845,0.123,34,17.1298,8.9237,97197
122,-0.6677,0.9933,0.1191,19.7252,10.3435,3.0687,97217
123,-0.6608,0.9784,0.1096,2.3359,3.4427,-3.5496,97237
124,-0.6579,0.9442,0.094,-5.6794,0.6947,-5.1145,97257
125,-0.6335,0.8898,0.0776,-0.6794,0.6489,-3.5802,97277
126,-0.6489,0.8915,0.1021,9.6183,0.6336,-1.3435,97297
127,-0.6569,0.924,0.1182,14.2977,-2.4198,-0.6489,97317
128,-0.6769,0.933,0.1294,12.2061,-10.4885,-3.8092,97337
129,-0.6555,0.9674,0.0964,7.9618,-16.0229,-9.374,97357
130,-0.6669,1.0067,0.0999,-0.4046,-17.9084,-12.5267,97377
131,-0.6542,0.9823,0.1089,-9.9618,-19.542,-11.2366,97397
132,-0.6523,0.9049,0.1426,-11.0153,-18.9695,-9.9847,97417
133,-0.6418,0.8876,0.1443,-3.2519,-15.0076,-9.1679,97437
134,-0.6481,0.9188,0.1348,3.6183,-11.2901,-7.9695,97457
135,-0.6359,0.9325,0.1025,5.7786,-9.3053,-7.0611,97477
136,-0.6518,0.9232,0.123,4.5725,-6.1908,-6.8473,97497
137,-0.6796,0.903,0.1614,-0.1679,-11.0305,-7.1145,97517
138,-0.6574,0.9047,0.1516,-1.2748,-13.6107,-6.8015,97537
139,-0.6259,0.9169,0.1255,0.8168,-8.458,-2.916,97557
140,-0.6105,0.8995,0.115,3.8855,2.9313,2.0229,97577
141,-0.6408,0.9188,0.1409,3.8626,13.5802,7.855,97597
142,-0.6945,0.9596,0.1721,9.1908,13.3359,14.7405,97617
143,-0.6728,0.9996,0.1685,7.9771,10.4351,23.2901,97637
144,-0.6457,0.9601,0.1328,-0.8702,13.6718,27.5191,97657
145,-0.6384,0.8456,0.1274,0.7786,11.5496,24,97677
146,-0.5908,0.8849,0.106,17.4046,16,22.3359,97697
147,-0.6159,0.9435,0.1138,26.0153,21.9542,20.4122,97717
148,-0.662,0.9821,0.1299,23.5496,16.2977,14.2595,97737
149,-0.653,1.0052,0.1016,10.8321,7.6183,6.8626,97757
150,-0.6415,1.0021,0.0847,0,0.4198,-0.3053,97777
151,-0.6472,0.995,0.0864,-5.1679,-1.5954,-6.5725,97797
152,-0.6476,0.9537,0.0935,-3.4962,-1.8855,-9.4656,97817
153,-0.6481,0.9486,0.1089,-1.229,-2.8015,-11.4046,97837
154,-0.6762,0.9664,0.1235,-5.1985,-9.9771,-16.7405,97857
155,-0.6625,0.9811,0.0823,-9.8779,-17.2595,-18.3206,97877
156,-0.6552,0.9877,0.0911,-14.6336,-19.3282,-17.7328,97897
157,-0.6486,0.9677,0.1265,-14.8626,-17.4046,-17.0229,97917
158,-0.6498,0.9381,0.1606,-14.374,-15.5344,-15.6641,97937
159,-0.6454,0.8873,0.1516,-8.9924,-16.0458,-15.1145,97957
160,-0.6386,0.9188,0.1465,-4.9313,-13.687,-15.2443,97977
161,-0.6557,0.953,0.1487,-10.9389,-15.3282,-15.5267,97997
162,-0.6511,0.9266,0.1521,-18.3359,-18.0611,-16.145,98017
163,-0.6313,0.8656,0.1604,-16.4886,-17.3588,-15.6947,98037
164,-0.6332,0.8478,0.1685,-6.8015,-12.4046,-11.9008,98057
165,-0.6371,0.8771,0.1477,-1.0611,-4.3053,-4.8244,98077
166,-0.6457,0.892,0.1516,-2.6641,2.3511,3.8092,98097
167,-0.6303,0.8658,0.1611,1.6794,10.6718,7.6794,98117
168,-0.6369,0.8783,0.1616,12.2672,18.3053,8.4733,98137
169,-0.6733,0.9249,0.1667,13.4885,20.771,10.3969,98157
170,-0.6882,0.9545,0.1646,8.5802,18.3588,9.3206,98177
171,-0.6684,0.9359,0.1536,4.6336,16.2366,8.2824,98197
172,-0.6479,0.9027,0.1228,10.6183,18.2519,10.4275,98217
173,-0.6386,0.91,0.1326,16.855,22.8168,14.2595,98237
174,-0.6557,0.9044,0.1492,19.2137,23.2595,15.1145,98257
175,-0.6835,0.9415,0.1465,13.374,17.145,15.3664,98277
0,0.1324,-0.2386,0.9773,-3.0076,6.1374,5.0458,100497
1,0.2259,-0.2123,0.8147,-1.5267,9.229,0.4733,100517
2,0.2322,-0.1759,0.8086,-1.3664,5.9389,0.8397,100537
3,0.2493,-0.1632,0.7961,-3.1985,3.458,2.6336,100557
4,0.2454,-0.1971,0.7986,-3.0534,4,2.0305,100577
5,0.2576,-0.2316,0.8088,-0.4885,1.2443,-0.6565,100597
6,0.272,-0.2155,0.791,4.0305,0.2595,0.9847,100617
7,0.2369,-0.2108,0.8342,9.3893,0.1985,2.6183,100637
8,0.4559,-0.1307,0.1492,27.0305,53.3359,-17.9313,100657
9,0.3245,-0.1263,0.9241,-14.1527,-34.2519,-12.1985,100677
10,0.3467,0.1368,0.7537,-37.2672,-7.7481,-12.2672,100697
11,0.1568,-0.1732,1.0051,-56.5267,5.1603,26.6183,100717
12,0.3018,-0.444,0.9941,-61.5802,-3.1756,18.0763,100737
13,0.45,-0.4833,0.9063,-50.9008,16.2519,17.4809,100757
14,0.3804,-0.3964,0.8301,-54.8931,30.5114,22.7328,100777
15,0.2833,-0.3944,0.9114,-64.2824,43.9924,41.0153,100797
16,0.2405,-0.4877,0.8923,-60.9618,54.8015,65.7252,100817
17,0.2259,-0.538,0.8652,-51.4885,64.1985,78.0763,100837
18,0.1778,-0.5077,0.8281,-46.7176,72.2137,86.9313,100857
19,0.119,-0.5016,0.7971,-40.8626,79.4046,98.7939,100877
20,0.0943,-0.515,0.769,-32.0534,81.6489,109.0076,100897
21,0.0931,-0.4801,0.6882,-24.1908,87.5343,120.8702,100917
22,0.0135,-0.3912,0.6165,-21.2519,97.9695,132.7176,100937
23,-0.1127,-0.3373,0.6157,-20.542,102.9771,143.1832,100957
24,-0.1603,-0.3732,0.6226,-19.3282,92.6031,149.3817,100977
25,-0.1401,-0.2931,0.5088,-15.9389,93.5115,155.145,100997
26,-0.2214,-0.2513,0.4902,-9.8855,97.145,162.7252,101017
27,-0.2944,-0.2059,0.4646,-13.6336,96.3817,162.6641,101037
28,-0.3903,-0.1198,0.4761,-17.7481,91.4046,162.4427,101057
29,-0.4474,-0.1383,0.4409,-12.2748,84.0916,162.9313,101077
30,-0.4716,-0.1202,0.3926,3.0229,79.7405,162.4809,101097
31,-0.5148,-0.0172,0.3999,16.2366,85.8702,162.6947,101117
32,-0.6144,-0.109,0.4543,19.1374,78.8626,156.7481,101137
33,-0.6015,-0.0062,0.3523,32.6718,78.374,150.0305,101157
34,-0.5917,0.1676,0.2371,37.7252,93.626,167.4122,101177
35,-0.6494,0.1947,0.2883,37.3359,101.1908,170.2366,101197
36,-0.7065,0.3038,0.2791,27.8397,91.4809,172.8931,101217
37,-0.7053,0.3138,0.2803,15.4351,74.9771,171.229,101237
38,-0.7126,0.3187,0.2678,7.6183,60.3359,170.3969,101257
39,-0.6227,0.3461,0.1831,16.4504,57.3588,164.626,101277
40,-0.6105,0.4823,0.1702,20.0153,70.0916,165.1908,101297
41,-0.6965,0.5377,0.22,16.9924,71.8626,160.458,101317
42,-0.7136,0.5863,0.1528,11.1527,62.771,153.0305,101337
43,-0.7233,0.6063,0.1294,6.8168,51.1145,146.1374,101357
44,-0.7192,0.6727,0.1438,8.6412,38.5038,139.4962,101377
45,-0.6835,0.7169,0.1472,9.374,28.8626,133.1985,101397
46,-0.6425,0.726,0.1128,5.0992,30.084,125.5191,101417
47,-0.6591,0.7313,0.1282,7.0534,28.2366,109.855,101437
48,-0.6926,0.8114,0.1909,-1.1756,16.4122,95.4962,101457
49,-0.6457,0.8085,0.1624,-6.6489,4.7634,75.771,101477
50,-0.6474,0.8175,0.1506,-15.2366,-7.7786,61.7176,101497
51,-0.6474,0.85,0.1692,-14.3435,-19.5649,50.0763,101517
52,-0.6205,0.8414,0.1812,-9.4885,-27.7328,40.3664,101537
53,-0.5912,0.8573,0.1589,-3.5878,-26.0229,29.9466,101557
54,-0.5805,0.8781,0.1387,-10.0305,-20.6794,28.0305,101577
55,-0.6127,0.8522,0.1912,-17.7557,-13.4885,24.3435,101597
56,-0.6472,0.8107,0.2837,-13.1908,-18.5954,16.7634,101617
57,-0.612,0.8583,0.2754,2.3664,-17.916,11.7557,101637
58,-0.5639,0.8851,0.1934,15.7023,-9.3893,11.9771,101657
59,-0.537,0.8749,0.1628,21.7328,3.2824,13.8092,101677
60,-0.5969,0.9003,0.2231,4.9008,15.0534,14.2748,101697
61,-0.6757,0.9125,0.2876,-12.2366,12.4351,9.3511,101717
62,-0.6,0.868,0.1995,-15.8855,16.4275,10.4885,101737
63,-0.6025,0.8285,0.1885,5.0763,26.5649,16.1145,101757
64,-0.6413,0.8524,0.1985,23.8779,28.3664,20.5496,101777
65,-0.6789,0.8961,0.2234,30.9695,24.2977,23.2824,101797
66,-0.6633,0.9547,0.207,32.084,17.5191,23.0763,101817
67,-0.6552,0.9535,0.1812,33.5878,19.771,20.0076,101837
68,-0.6799,0.995,0.2317,34.3206,15,15.6794,101857
69,-0.6696,1.0121,0.2439,28.8473,7.8779,6.542,101877
70,-0.6418,1.0248,0.1467,15.626,8.3511,-1.1756,101897
71,-0.6633,0.9943,0.074,-2.7328,9.8702,-5.9466,101917
72,-0.6913,0.9601,0.0859,-18.626,5.8855,-8.458,101937
73,-0.6913,0.8883,0.1157,-23,-4.1985,-10.855,101957
74,-0.6779,0.8634,0.0908,-7.1603,-14.1145,-10.6031,101977
75,-0.6674,0.8895,0.0889,3.0229,-20.458,-6.1527,101997
76,-0.6953,0.9291,0.156,8.542,-29.2901,-2.7023,102017
77,-0.6537,0.8993,0.1711,12.3359,-35.6641,-3.1298,102037
78,-0.632,0.9117,0.1062,18.855,-30.771,-2.8092,102057
79,-0.6276,0.9674,0.0977,11.8015,-24.5649,1.145,102077
80,-0.6496,0.962,0.1279,-3.916,-22.3206,2.6107,102097
81,-0.6347,0.9454,0.1482,-14.3893,-23.2977,2.3588,102117
82,-0.5981,0.9,0.1348,-12.7176,-19.9466,1.9389,102137
83,-0.5749,0.9039,0.1267,-2.2748,-10.7328,8.5954,102157
84,-0.5927,0.9137,0.176,4.6565,-3.4275,17.0229,102177
85,-0.5866,0.9591,0.1978,5.3893,4.4733,19.3359,102197
86,-0.5861,0.9708,0.198,0.2519,16.1527,21.3206,102217
87,-0.601,0.9535,0.1772,2.1069,25.6947,21.8397,102237
88,-0.6066,0.9293,0.179,10.0153,31.7481,24.2214,102257
89,-0.6183,0.9667,0.1968,23.0916,31.5496,25.3893,102277
90,-0.6161,0.9684,0.1863,25.7099,24.6565,21.0992,102297
91,-0.6508,1.0631,0.1375,22.3969,16.1985,12.1374,102317
92,-0.6594,1.1029,0.1165,-0.6183,4.1221,3.6107,102337
93,-0.6154,1.0472,0.1255,-16.5954,-0.3359,-5.1756,102357
94,-0.6603,1.0292,0.2327,-26.1908,-4.1069,-7.8855,102377
95,-0.6413,0.9923,0.2617,-29.7405,-14.458,-16.9466,102397
96,-0.602,0.9496,0.1372,-21.6412,-13.6641,-20.5649,102417
97,-0.6198,0.9415,0.0881,-12.4275,-11.7405,-19.8931,102437
98,-0.6552,0.9806,0.1165,-11.0687,-13.7786,-21.8779,102457
99,-0.6608,0.9313,0.1814,-16.4733,-25.6107,-24.5038,102477
100,-0.6247,0.9103,0.1763,-13.8092,-29.9237,-23.8626,102497
101,-0.6025,0.899,0.1641,-9.3588,-28.3588,-18.9771,102517
102,-0.6037,0.8922,0.1655,-3.8321,-19.9542,-14.1069,102537
103,-0.6191,0.9127,0.1982,-0.5878,-14,-10.1832,102557
104,-0.6113,0.9337,0.1885,-2.8321,-12.6718,-6.084,102577
105,-0.5961,0.9303,0.1973,-5.6947,-7.2901,-1.313,102597
106,-0.6086,0.9257,0.1804,-3.7252,-0.8702,2.374,102617
107,-0.6193,0.9396,0.228,-2.2901,5.1679,8.3053,102637
108,-0.612,0.8727,0.2559,0.7863,8.9313,14.313,102657
109,-0.6293,0.8907,0.217,9.8779,15.9618,18.6031,102677
110,-0.6581,0.9733,0.2026,14.4733,18.8244,21.5267,102697
111,-0.6393,0.9401,0.2063,14.4962,19.5114,22.7405,102717
112,-0.6098,0.9122,0.1982,20.9618,21.1756,23.7557,102737
113,-0.6259,0.9493,0.1731,29.084,22.2901,23.3588,102757
114,-0.6288,1.004,0.1509,25.2901,17.6412,19.7786,102777
115,-0.6242,0.9982,0.1306,19.4733,10.2977,13.0992,102797
116,-0.5768,1.0209,0.1287,14.5267,11.4122,8.084,102817
117,-0.6225,1.0109,0.177,8.4122,11.7176,2.2824,102837
118,-0.6564,1.0114,0.197,-3.2519,1.3435,-8.2366,102857
119,-0.6489,1.0177,0.1746,-10.5573,-12.2519,-19.0382,102877
120,-0.6396,1.0197,0.1406,-15.9695,-22.9084,-25.374,102897
121,-0.6286,0.9806,0.1448,-17.3053,-28.7023,-27.5496,102917
122,-0.6196,0.9222,0.166,-16.916,-27.9618,-24.5573,102937
123,-0.6235,0.8912,0.1863,-11.855,-23.4809,-20.6183,102957
124,-0.6161,0.8849,0.178,-4.2214,-17.1908,-12.9389,102977
125,-0.6218,0.9115,0.1802,4.3053,-10.0153,-5.4275,102997
126,-0.6274,0.964,0.1677,6.1221,-3.2595,1.9466,103017
127,-0.6342,0.9589,0.207,-0.8473,0.4885,7.6641,103037
128,-0.6064,0.9454,0.1843,1.7252,6.1603,7.6336,103057
129,-0.5866,0.9489,0.1877,2.4885,17.3664,13.6336,103077
130,-0.6059,0.9044,0.1843,6.6183,26.2901,13.4351,103097
131,-0.6328,0.9396,0.1868,11.3206,28.7939,13.6031,103117
132,-0.6379,0.9979,0.1743,6.1298,27.6183,16.9542,103137
133,-0.6298,0.9493,0.1487,3.4962,25.3817,19.1908,103157
134,-0.613,0.9127,0.1523,14.6489,25.3053,14.9084,103177
135,-0.6396,0.9904,0.1343,25.8168,20.1756,11.4656,103197
136,-0.6342,1.0458,0.1204,14.3664,9.458,5.687,103217
137,-0.6183,1.0529,0.1243,-8.2748,4.8168,-2.1527,103237
138,-0.6464,1.0353,0.127,-28.3511,-1.5115,-9.1908,103257
139,-0.6291,0.9669,0.1721,-35.9008,-7.4733,-16.9084,103277
140,-0.6672,0.9642,0.2158,-29.5344,-14.0076,-25.5649,103297
141,-0.6725,0.9825,0.1926,-30.0076,-25.5802,-30.1603,103317
142,-0.6528,0.962,0.1536,-31.1832,-31.8015,-30.5649,103337
143,-0.6442,0.8959,0.1726,-25.5802,-33.2214,-27.5267,103357
144,-0.6235,0.8461,0.1753,-11.2137,-29.458,-21.0916,103377
145,-0.61,0.8441,0.1897,1.7023,-22.8931,-12.9466,103397
146,-0.6093,0.8617,0.1953,10.4504,-11.6031,-7.9924,103417
147,-0.6296,0.9257,0.2161,11.2672,-1.9542,-3.4733,103437
148,-0.642,0.9349,0.2356,5.4733,1.0687,-2.8168,103457
149,-0.6445,0.9393,0.22,2.7328,2.8321,0.5878,103477
150,-0.6154,0.9525,0.1995,0.0382,8.8092,9.2366,103497
151,-0.6105,0.851,0.1819,1.4885,18.5344,14.084,103517
152,-0.644,0.8688,0.2097,15.3053,25.458,15.4885,103537
153,-0.6535,0.9894,0.1897,17.3664,25.0305,19.855,103557
154,-0.6635,0.9847,0.1736,4.1832,21.2595,19.6565,103577
155,-0.6708,0.9742,0.1926,-7.0076,14.1298,13.1374,103597
156,-0.6428,0.9679,0.1868,-13.313,10.0076,6.1298,103617
157,-0.6337,0.9301,0.1858,-12.3588,6.8168,0.5649,103637
158,-0.6552,0.9283,0.1875,-3.8092,0.2672,-5.4656,103657
159,-0.6376,0.9569,0.1719,-1.3206,-7.7634,-9.3206,103677
160,-0.6601,0.9518,0.1968,-4.0687,-15.2443,-10.5267,103697
161,-0.6533,0.943,0.2063,-7.1069,-23.7557,-13.1069,103717
162,-0.6325,0.9264,0.1902,-8.4122,-25.5878,-14.8779,103737
163,-0.642,0.903,0.1865,-5.1145,-24.5954,-15.3359,103757
164,-0.6328,0.9159,0.1887,-3.8931,-21.374,-14.9008,103777
165,-0.6227,0.903,0.2043,-5.313,-15.5954,-11.0611,103797
166,-0.6384,0.8773,0.2341,-3.9771,-10.0534,-7.9389,103817
167,-0.6374,0.881,0.2251,0.2137,-6.8397,-4.4885,103837
168,-0.6369,0.9098,0.2205,3.542,-1.7023,0.6183,103857
169,-0.6359,0.912,0.2234,5.1679,1.8779,5.2137,103877
170,-0.6225,0.9274,0.2236,7.7634,8.5115,8.1069,103897
171,-0.6281,0.9308,0.238,3.9771,13.1527,14.145,103917
172,-0.6306,0.9054,0.2412,1.0687,17.1679,16.9237,103937
173,-0.6325,0.9081,0.2048,3.7481,16.458,16.3969,103957
174,-0.6252,0.9335,0.2021,6.6565,15.2824,18.6565,103977
175,-0.6157,0.9205,0.1858,10.1679,15.4656,18.8168,103997
0,0.2178,-0.286,0.7361,-5.0458,18.4962,4.4046,106117
1,0.1819,-0.2738,0.7988,4.1145,11.7405,-6.3435,106137
2,0.1714,-0.2157,0.8032,4.7405,-1.9084,-8.4275,106157
3,0.1807,-0.1891,0.8027,2.3969,-9.4046,-5.6336,106177
4,0.212,-0.1779,0.7764,3.1374,-5.4733,-6.1527,106197
5,0.2213,-0.1959,0.7751,3.0382,1.4656,-11.7939,106217
6,0.2244,-0.2147,0.7859,4.1832,1.6565,-11.2824,106237
7,0.2086,-0.2094,0.7981,5.145,-3.7099,-5.7328,106257
8,0.2142,-0.2079,0.8057,3.0382,-8.145,-5.145,106277
9,0.2757,-0.2511,0.8376,1.3206,-19.3969,-12.2901,106297
10,0.0882,-0.3905,0.4958,-1.542,31.3359,-7.5038,106317
11,0.2684,-0.2423,0.7522,-1.9771,5.9618,-12.1985,106337
12,0.2698,0.3329,0.7783,-10.1221,8.084,-12.0992,106357
13,0.0635,0.0873,0.7468,-45.9924,-9.771,38.0763,106377
14,0.2618,-0.203,0.802,-84.8168,-30.4351,27.4656,106397
15,0.3946,-0.4056,0.8455,-86.6031,-16.2672,18.4733,106417
16,0.4722,-0.4166,0.8091,-83.3588,-0.2061,7.1221,106437
17,0.421,-0.3761,0.8088,-87.8397,20.5954,20.6183,106457
18,0.3289,-0.4879,0.8167,-90.3359,38.7481,35.6641,106477
19,0.2728,-0.6696,0.8538,-89.2824,36.4427,40.6183,106497
20,0.2962,-0.736,0.8452,-74.771,45.0382,39.9008,106517
21,0.3121,-0.6937,0.7361,-57.771,57.9618,52.6107,106537
22,0.1966,-0.5768,0.7078,-46.9084,75.6183,102.7328,106557
23,0.096,-0.6381,0.7063,-45.3664,81.6641,125.6794,106577
24,0.0176,-0.6481,0.6707,-48.6489,77.1374,128.0382,106597
25,-0.0312,-0.6073,0.6042,-43.0076,73.2977,134.313,106617
26,-0.0812,-0.5145,0.5562,-28.8473,76.9618,144.2137,106637
27,-0.1188,-0.4557,0.5063,-18.7328,74.9618,155.7252,106657
28,-0.1398,-0.3956,0.4377,-10.9695,76.7328,168.8244,106677
29,-0.1994,-0.3414,0.4075,-2.8397,79.6336,173.9466,106697
30,-0.2529,-0.3143,0.4019,7.2443,78.916,164.7252,106717
31,-0.2963,-0.171,0.3599,14.0229,75.7863,175.4275,106737
32,-0.3203,-0.1088,0.3569,16.9008,71.4275,167.7328,106757
33,-0.3488,-0.0258,0.3147,10.1832,65.229,157.0992,106777
34,-0.4008,0.0211,0.2874,0.6718,67.1298,158.9237,106797
35,-0.4899,-0.0714,0.2937,8.8702,72.9847,149.2366,106817
36,-0.5593,-0.0634,0.312,23.6183,71.1679,135.4962,106837
37,-0.5971,0.0536,0.3193,18.5802,65.3893,140.6336,106857
38,-0.6865,0.1459,0.3098,8.2519,64.3817,140.3664,106877
39,-0.8022,0.0878,0.3616,7.4885,44.8397,143.9389,106897
40,-0.7448,0.0973,0.2756,20.374,28.3511,145.0153,106917
41,-0.6835,0.2113,0.1873,29.9008,39.687,156.0076,106937
42,-0.7709,0.2413,0.293,32.9847,49.8626,162.9847,106957
43,-0.8259,0.2445,0.333,32.3664,34.1069,154.5725,106977
44,-0.7512,0.3448,0.2227,30.7481,28.3511,161.313,106997
45,-0.6977,0.3859,0.2095,34.2595,34.5267,163.4657,107017
46,-0.7224,0.4218,0.2632,37.7786,38.2595,164.9924,107037
47,-0.7177,0.5153,0.2131,41.1069,40.3588,162.771,107057
48,-0.6926,0.6117,0.1565,41.6794,43.4122,157.0611,107077
49,-0.6894,0.6158,0.1394,40.7252,46.5725,146.145,107097
50,-0.7006,0.6298,0.1646,36.855,41.1985,133.855,107117
51,-0.7209,0.7443,0.1938,24.8702,27.7328,126.313,107137
52,-0.6713,0.7946,0.1458,6.0916,15.542,115.3817,107157
53,-0.653,0.8268,0.1584,-7.5496,13.626,104.4198,107177
54,-0.6906,0.868,0.2075,-15.3282,4.8626,95.4962,107197
55,-0.663,0.8395,0.2324,-10.1298,-8.1908,77.458,107217
56,-0.5849,0.817,0.1555,3.6489,-8.9924,66.8626,107237
57,-0.6154,0.8885,0.1716,-0.4351,-6.2137,66.8321,107257
58,-0.6269,0.8781,0.2354,-14.084,-12.3435,58.8397,107277
59,-0.5734,0.8878,0.2261,-24.0076,-15.374,50.4504,107297
60,-0.5583,0.8571,0.2187,-19.8779,-15.1374,43.7176,107317
61,-0.5248,0.8573,0.2063,-7.7557,-11.9008,35.3511,107337
62,-0.5317,0.8749,0.2302,3.7252,-2.5802,27.9389,107357
63,-0.5422,0.9359,0.2356,0.7023,-1.1679,23.1298,107377
64,-0.5473,0.9486,0.2563,-16.8168,-4.458,21.5878,107397
65,-0.5441,0.8766,0.2517,-19.2214,-3.8855,16.2901,107417
66,-0.5439,0.9037,0.2776,-3.1679,2.2519,13.6489,107437
67,-0.5356,0.8998,0.2583,13.0382,9.1603,14.1908,107457
68,-0.5573,0.964,0.2393,17.6183,16.8473,17.771,107477
69,-0.6059,0.9982,0.2717,6.6718,15.6183,18.7786,107497
70,-0.5607,0.9528,0.2163,-1.4122,15.4962,17.9008,107517
71,-0.5593,0.9105,0.2173,9.5802,28.5191,19.2443,107537
72,-0.614,0.9203,0.231,28.6107,28.4733,19.4733,107557
73,-0.6144,0.9921,0.2036,33.2214,23.5344,22.2977,107577
74,-0.614,0.9967,0.1604,30.916,19.855,24.0992,107597
75,-0.6086,1.0594,0.1421,28.4504,19.771,23.6183,107617
76,-0.6496,1.0509,0.1763,19.0611,12.0916,16.542,107637
77,-0.642,1.1344,0.1958,4.9008,0.1374,7.8931,107657
78,-0.6537,1.0797,0.2004,-12.7863,-10.8855,-4.5038,107677
79,-0.5988,1.0416,0.1675,-21.7252,-13.8779,-10.771,107697
80,-0.5917,0.9884,0.1665,-19.5573,-14.2901,-12.2748,107717
81,-0.5964,0.9847,0.1836,-12.9618,-15.229,-12.1603,107737
82,-0.6098,0.9943,0.1899,-7.2061,-21.8092,-15.3893,107757
83,-0.5866,1.037,0.1638,-9.2366,-26.8321,-18.1756,107777
84,-0.5908,1.0216,0.179,-21.7252,-30.9542,-18.6412,107797
85,-0.5825,0.9301,0.1975,-24.2901,-31.771,-19.6641,107817
86,-0.5534,0.8951,0.2002,-14.4351,-26.6794,-16.7099,107837
87,-0.5488,0.902,0.1907,-1.7405,-16.3817,-10.4733,107857
88,-0.5693,0.9457,0.197,3.2137,-7.1527,-1.9466,107877
89,-0.5661,0.9359,0.1924,6.4351,-0.4122,5.0687,107897
90,-0.5583,0.9738,0.2065,9.9771,9.0763,10.9695,107917
91,-0.5554,0.9801,0.21,15.229,18.8931,11.8015,107937
92,-0.5949,0.9862,0.2239,13.5878,20.4962,15.0076,107957
93,-0.621,0.993,0.2285,6.7099,17.6107,14.3435,107977
94,-0.6157,1.0297,0.1863,1.3359,15.3206,15.5038,107997
95,-0.5759,0.9928,0.1658,4.0305,17.6107,18.7786,108017
96,-0.5602,0.8993,0.2061,24.8015,23.5573,19.1069,108037
97,-0.6147,0.9445,0.1973,47.9313,21.0076,17.1298,108057
98,-0.6205,1.1036,0.176,34.4351,9.7405,15.3359,108077
99,-0.6166,1.1271,0.1526,9.2824,0.9237,7.6794,108097
100,-0.5964,1.069,0.1631,-10.0687,-4.5191,-0.8092,108117
101,-0.6015,1.0284,0.1848,-17.8702,-7.1527,-6.1832,108137
102,-0.6108,1.0128,0.1887,-25.3664,-11.1221,-7.9466,108157
103,-0.5795,0.9869,0.1685,-25.687,-12.5802,-8.8244,108177
104,-0.5771,0.9725,0.1797,-11.1908,-11.0763,-12.3969,108197
105,-0.6186,1.0404,0.2036,-4.8015,-16.6107,-9.5115,108217
106,-0.6181,1.0592,0.2112,-10.4122,-23.4962,-11.7634,108237
107,-0.5803,0.9913,0.1973,-14.1221,-26.1145,-16.0916,108257
108,-0.5451,0.9374,0.1997,-5.1832,-20.9237,-19.542,108277
109,-0.5546,0.9642,0.2095,3.3893,-11.5496,-18.145,108297
110,-0.5956,1.0016,0.2329,-2.9924,-8.9237,-14.0992,108317
111,-0.5959,0.9796,0.2368,-14.2977,-10.2672,-11.0305,108337
112,-0.5536,0.91,0.1987,-10.1298,-1.313,-11.7557,108357
113,-0.5754,0.8832,0.199,7.9924,9.2977,-6.9542,108377
114,-0.6088,1.0109,0.199,17.3359,14.8626,0.4427,108397
115,-0.6181,0.9979,0.2197,7.9542,13.7939,10.7481,108417
116,-0.6157,0.9684,0.2288,7.6107,16.313,11.5573,108437
117,-0.6157,1.0135,0.2012,9.0916,18.229,15.2748,108457
118,-0.6017,1.0214,0.1882,7.2672,18.6565,18.084,108477
119,-0.593,0.9906,0.1912,4.5649,20.4733,20.8321,108497
120,-0.6069,0.9625,0.2231,4.9466,16.6107,18.8626,108517
121,-0.6108,0.9559,0.2019,4.6031,6.855,13.1603,108537
122,-0.6186,1.1027,0.188,-0.9008,-0.6794,5.229,108557
123,-0.6203,1.0734,0.1948,-18.5725,-11.7099,-4.5878,108577
124,-0.582,1.0031,0.2043,-26.3817,-18.8397,-12.9084,108597
125,-0.5746,0.9606,0.1763,-16.7252,-12.8855,-14.4198,108617
126,-0.5695,0.9498,0.2234,-4.4122,-8.2519,-10.626,108637
127,-0.5895,0.9464,0.2385,7.9924,-6.313,-10.6107,108657
128,-0.6083,1.0348,0.2227,10.1069,-10.7405,-8.1908,108677
129,-0.6025,1.038,0.1909,1.5115,-14.9389,-10.8473,108697
130,-0.6054,1.0035,0.208,-5.0534,-17.0992,-14.0534,108717
131,-0.5952,0.9757,0.2209,-8.7557,-18.8779,-17.0763,108737
132,-0.5771,0.9442,0.2339,-8.1374,-13.7863,-16.7176,108757
133,-0.5734,0.9064,0.2192,-4.145,-6.3435,-12.1679,108777
134,-0.5971,0.9117,0.2205,1.8244,0.2366,-4.8397,108797
135,-0.6037,0.9357,0.2275,5.626,2.3206,2.1298,108817
136,-0.6093,0.9796,0.2136,11.0458,0.6565,7.4275,108837
137,-0.5961,1.0807,0.2346,2.9466,2.1069,16.458,108857
138,-0.5864,0.9442,0.2268,-8.2977,4.0229,14.8702,108877
139,-0.5964,0.9498,0.2463,-6.1985,8.9618,12.7252,108897
140,-0.5732,0.9552,0.2144,-2.4275,15.0458,16.1221,108917
141,-0.5729,0.9545,0.2251,3.8244,21.8931,16.9084,108937
142,-0.6017,0.9711,0.2097,9.3588,24.5649,18.3359,108957
143,-0.6237,1.015,0.2361,13.6489,21.3282,22.2977,108977
144,-0.5883,0.9454,0.2122,19.8473,19.1756,16.1832,108997
145,-0.6032,1.0099,0.1704,24.8931,17.8092,11.5649,109017
146,-0.6183,1.0978,0.1775,5.6641,10.2595,6.4046,109037
147,-0.6179,1.0345,0.1829,-11.8244,-1.2748,-2.9695,109057
148,-0.59,1.0111,0.1914,-11.2977,-7.3511,-9.0153,109077
149,-0.5703,0.9904,0.2156,-6.6336,-9.0229,-12.3282,109097
150,-0.5832,0.9918,0.2258,-5.771,-12.5115,-18.0305,109117
151,-0.5964,1.0597,0.1902,-14.8931,-15.6031,-17.4962,109137
152,-0.5942,1.0494,0.2012,-27.1527,-20.1145,-14.8779,109157
153,-0.5729,0.952,0.1921,-28.2824,-19.3282,-15.9771,109177
154,-0.5776,0.9032,0.2021,-16.4733,-14.2443,-16.5344,109197
155,-0.5959,0.9594,0.2297,-9.9924,-8.6412,-14.916,109217
156,-0.601,0.964,0.2493,-12.7023,-6.6565,-11.1679,109237
157,-0.5847,0.9137,0.2361,-6.5115,-4.7786,-9.6489,109257
158,-0.5932,0.9254,0.2354,3.8321,2.687,-7.0382,109277
159,-0.6054,0.9633,0.2395,7.6794,4.8015,-5.5344,109297
160,-0.6086,0.9801,0.2471,4.4351,3.0458,-2.4733,109317
161,-0.5993,0.9845,0.2378,1.3206,3.0305,1.2901,109337
162,-0.5932,0.9242,0.2295,1.9847,6.7328,4.4809,109357
163,-0.5715,0.9164,0.2073,10.3969,15.9389,10.0992,109377
164,-0.6032,0.9584,0.2222,16.5496,22.8015,16.0153,109397
165,-0.6281,1.0077,0.2122,12.916,22.6947,19.1069,109417
166,-0.6076,0.9894,0.2009,7.0916,22.2519,18.4504,109437
167,-0.6022,0.9774,0.2073,9.084,23.6031,16.0534,109457
168,-0.6135,1.0033,0.2004,10.5573,20.5878,13.2748,109477
169,-0.6296,1.0011,0.2073,4.8092,13.9008,8.5496,109497
170,-0.6296,1.0302,0.2034,-3.458,5.9084,1.5878,109517
171,-0.6242,1.0106,0.1843,-8.4962,-2.3435,-4.3206,109537
172,-0.6032,0.9921,0.1814,-8.1374,-10.1679,-9.9847,109557
173,-0.5905,0.9576,0.2109,-3.6641,-15.1908,-12.8702,109577
174,-0.612,0.9872,0.2051,-0.3511,-14.8626,-15.4809,109597
175,-0.6093,0.9559,0.2092,-5.3664,-16.1908,-17.8855,109617
0,0.3489,-0.0206,0.8467,-2.313,6.1527,-0.0458,111937
1,0.2737,-0.1344,0.8481,1.6718,5.0611,-0.0534,111957
2,0.2798,-0.1173,0.842,2.8092,3.7786,-0.7481,111977
3,0.2796,-0.1066,0.8472,2.4351,1.6718,-1.7328,111997
4,0.2784,-0.1163,0.8386,3.2748,2.2061,-3.3053,112017
5,0.2667,-0.1361,0.8538,4.855,1.0611,-6.1679,112037
6,0.2564,-0.1281,0.8726,4.626,-6.0687,-6.4885,112057
7,0.2918,-0.0736,0.8362,0.4962,-9.0305,-4.4046,112077
8,0.2759,-0.0885,0.8567,0.0076,-10.0305,-5.0916,112097
9,0.6277,-0.0338,0.699,0.0992,-27.2366,-6.3893,112117
10,0.3651,0.0641,0.7849,1.4198,0.5496,15.5191,112137
11,-0.0048,-0.0927,1.0764,-10.229,-3.2061,17.084,112157
12,0.2999,-0.0411,0.9209,-34.1985,-26.4122,-6.9313,112177
13,0.4437,-0.1898,0.863,-36.4046,3.2061,-2.9542,112197
14,0.389,-0.2714,0.887,-27.1756,14.5573,-4.4809,112217
15,0.4971,-0.215,0.875,-23.8015,24.771,4.2672,112237
16,0.4725,-0.2101,0.9023,-30.458,43.5725,24.1374,112257
17,0.4031,-0.1708,0.9512,-58.8855,54.0687,47.8015,112277
18,0.304,-0.2089,1.0081,-93.2061,54.2519,57.7328,112297
19,0.2752,-0.4127,1.0688,-104.0305,49.9389,69.0382,112317
20,0.3406,-0.5277,0.9902,-86.6794,60.2977,74.855,112337
21,0.296,-0.5123,0.9561,-58.6183,79.3511,87.8779,112357
22,0.2532,-0.4916,0.9246,-50.2137,94.4657,106.5496,112377
23,0.1666,-0.4852,0.8486,-49.2824,106.5573,118.4962,112397
24,0.0306,-0.4115,0.8262,-45.9542,111.771,123.8244,112417
25,-0.0585,-0.3771,0.8013,-43.9389,105.0229,133.3053,112437
26,-0.0522,-0.359,0.6711,-40.9313,100.5191,144.458,112457
27,-0.123,-0.2792,0.6028,-34.4733,105.7176,152.542,112477
28,-0.2016,-0.2848,0.5576,-22.3435,102.6489,154.8321,112497
29,-0.2783,-0.2631,0.5596,-0.7634,94.687,142.4046,112517
30,-0.3015,-0.1818,0.5095,25.855,85.084,129.7634,112537
31,-0.269,-0.0299,0.3777,44.6641,87.9847,131.1527,112557
32,-0.3364,0.0048,0.342,41.2824,97.9618,134.9847,112577
33,-0.4616,0.046,0.3403,29.2672,101.8779,130.8702,112597
34,-0.5676,-0.037,0.4365,17.5573,89.7176,128.5496,112617
35,-0.5949,-0.0365,0.4319,20.5191,70.916,120.8473,112637
36,-0.5944,0.0463,0.3762,20.4809,62.6641,133.1221,112657
37,-0.6035,0.0629,0.3604,19.1908,61.9542,130.2443,112677
38,-0.6703,0.0258,0.3345,22.2366,56.4198,144.6488,112697
39,-0.7245,0.0397,0.3499,42.3435,53.4733,148.4351,112717
40,-0.7062,0.151,0.2808,67.5267,54.9313,158.7099,112737
41,-0.6789,0.297,0.251,87.4122,68.3435,172.4122,112757
42,-0.7165,0.3561,0.2678,97.5649,78.1527,174.626,112777
43,-0.7687,0.4049,0.2815,96.1221,71.9618,169.7863,112797
44,-0.7856,0.5458,0.2698,79.313,58.7252,166.5802,112817
45,-0.7411,0.6427,0.2368,55.1756,44.8168,159.5878,112837
46,-0.6747,0.692,0.2012,30.5038,36.4275,161.1221,112857
47,-0.5993,0.6505,0.1694,22.1298,36.9618,157.4198,112877
48,-0.5812,0.6818,0.168,22.4733,41.1298,154.9618,112897
49,-0.5832,0.7365,0.179,27.0611,39.0153,148.5878,112917
50,-0.5764,0.757,0.1667,31.4809,35.5191,142.2595,112937
51,-0.6144,0.8383,0.144,35.6489,28.5496,134.5802,112957
52,-0.6269,0.9252,0.1716,37.3817,11.4198,123.5343,112977
53,-0.5532,0.8986,0.1501,44.1985,-3.6107,107.3206,112997
54,-0.5549,0.9088,0.1694,52.3282,-9.5649,93.1985,113017
55,-0.5578,1.0377,0.1724,43.1832,-14.9924,83.8397,113037
56,-0.5297,1.1085,0.1897,16.8168,-20.374,77.7863,113057
57,-0.4687,1.0126,0.2097,-0.5115,-18.6489,65.8015,113077
58,-0.4455,0.9918,0.2261,2,-7.5267,55.5878,113097
59,-0.4868,1.0553,0.2893,3.0076,-7.4809,48.7786,113117
60,-0.4575,1.0902,0.2378,-4.3588,-8.2595,39.5038,113137
61,-0.456,1.1058,0.1968,-12.5344,-5.687,32.7634,113157
62,-0.4453,1.0519,0.2109,-13.2519,-6.8855,26.0534,113177
63,-0.4531,1.0614,0.2393,-3.6641,-0.7099,24.4122,113197
64,-0.4389,1.048,0.2529,2.5802,1.2977,23.1908,113217
65,-0.3984,1.0453,0.2234,5.8015,12.0153,24.8473,113237
66,-0.4357,1.0333,0.2363,12.1527,19.5267,25.7634,113257
67,-0.4291,1.1481,0.1963,17.084,30.9237,26.4733,113277
68,-0.4345,1.1307,0.2168,8.0153,31.1374,24.5267,113297
69,-0.4401,1.0948,0.219,4.9542,29.3588,20.4427,113317
70,-0.4555,1.0897,0.165,5.6336,29.8244,22.542,113337
71,-0.4902,1.0677,0.1912,10.0611,26.7176,22.5267,113357
72,-0.4606,1.1312,0.1904,16.8779,24.5649,24.7176,113377
73,-0.4655,1.1268,0.1965,22.6031,21.6641,24.4886,113397
74,-0.4655,1.1715,0.1929,24.4809,16.9695,22.8626,113417
75,-0.4684,1.2103,0.1797,14.1908,11.4733,18.2519,113437
76,-0.4985,1.1793,0.1511,3.0153,3.542,8.229,113457
77,-0.4743,1.2279,0.1646,-11.6031,-0.8855,2.2748,113477
78,-0.4706,1.1754,0.2065,-15.3969,-8.0611,-8.2901,113497
79,-0.4592,1.1622,0.1956,-19.2977,-13.5878,-13.2366,113517
80,-0.4733,1.1876,0.1777,-26.5573,-13.9008,-15.458,113537
81,-0.4787,1.1722,0.1904,-34.5878,-16.8702,-16.2061,113557
82,-0.4518,1.1307,0.2002,-36.4427,-22.7405,-21.0076,113577
83,-0.4489,1.1051,0.1875,-29.5038,-22.5878,-23.9542,113597
84,-0.489,1.1105,0.2029,-30.0382,-24.2748,-22.8855,113617
85,-0.4843,1.1044,0.2356,-33.8779,-25.1298,-20.374,113637
86,-0.456,1.0472,0.229,-29.2519,-23.3893,-17.687,113657
87,-0.4396,1.0194,0.2317,-12.3664,-16.5573,-14.4122,113677
88,-0.4626,1.0211,0.2341,3.6947,-9.9542,-11.687,113697
89,-0.4973,1.0829,0.2419,6.5344,-7.9389,-7.4733,113717
90,-0.5085,1.099,0.2583,0.9771,-10.3817,-5.3053,113737
91,-0.4748,1.0907,0.2498,4.5802,-12.3359,-2.1908,113757
92,-0.4499,1.1205,0.2742,6.3969,-8.5878,5.4733,113777
93,-0.4958,1.0433,0.2566,1.4275,-7.3511,8.0382,113797
94,-0.5048,1.0663,0.2444,5.4656,-8.8626,5.3969,113817
95,-0.4658,1.1305,0.2615,3.3893,-5.4275,4.7786,113837
96,-0.4858,1.1129,0.2534,-2.4198,-0.9771,2.9695,113857
97,-0.5185,1.1183,0.2563,-6.9771,-2.0229,1.6336,113877
98,-0.5134,1.1122,0.2634,-8.2366,-3.5725,1.3893,113897
99,-0.4868,1.1198,0.2612,-7.3588,-2.5802,-1.084,113917
100,-0.4748,1.0997,0.2732,-7.7939,-1.1527,-1.4962,113937
101,-0.4704,1.1041,0.2705,-9.084,2.8931,-1.5573,113957
102,-0.4914,1.101,0.2886,-15.2137,3.0916,-1,113977
103,-0.4914,1.0807,0.2739,-19.0458,0.2214,-3.2595,113997
104,-0.4728,1.0939,0.272,-17.9313,0.7099,-5.3969,114017
105,-0.4758,1.0677,0.2708,-16.3817,3.0687,-3.9237,114037
106,-0.4892,1.0597,0.3015,-12.084,2.4275,-3.1985,114057
107,-0.4667,1.0387,0.2764,-7.313,2.4198,-2.3053,114077
108,-0.4599,1.0612,0.2583,-1.7328,9.4046,1.6031,114097
109,-0.4821,1.0697,0.2612,0.3206,15.7786,6.1298,114117
110,-0.4728,1.0844,0.2683,-0.4885,22.626,6.0687,114137
111,-0.4626,1.0973,0.2649,0.2977,25.1221,6.3359,114157
112,-0.4619,1.0665,0.2502,0.8626,29.3053,13.2977,114177
113,-0.4753,1.0621,0.2371,5.9466,34.229,19.0076,114197
114,-0.4948,1.0653,0.2583,9.9084,33.1298,26.8168,114217
115,-0.4765,1.0231,0.2488,24.145,32.1756,27.458,114237
116,-0.4882,1.0546,0.2344,43.0458,29.3969,27.7405,114257
117,-0.5136,1.1603,0.2129,46.9771,19.5114,26.3053,114277
118,-0.5065,1.1974,0.1782,34,9.1527,21.687,114297
119,-0.4799,1.184,0.1826,21.2595,3.2977,15.3359,114317
120,-0.4562,1.1837,0.1931,12.4656,2.458,10.1679,114337
121,-0.4692,1.1705,0.209,3.9618,-1.374,4.145,114357
122,-0.4543,1.171,0.2026,-2.0916,-1.2519,-0.2519,114377
123,-0.4641,1.1215,0.1833,-1.8931,-1.0458,-3.8473,114397
124,-0.4579,1.1044,0.1785,3.9847,-3.5802,-8.4962,114417
125,-0.4675,1.1884,0.1914,3.458,-8.5802,-9.9618,114437
126,-0.4916,1.1407,0.1936,-2.3588,-19.3664,-15.4962,114457
127,-0.4767,1.1351,0.177,-5.3359,-25.5267,-23,114477
128,-0.4892,1.1381,0.1992,-9.6107,-27.8244,-25.4733,114497
129,-0.4765,1.1527,0.2109,-15.4962,-29.4351,-26.2824,114517
130,-0.4448,1.1005,0.2068,-17.6718,-26.4962,-25.8321,114537
131,-0.4533,1.0409,0.2087,-8.6107,-16.374,-25.5878,114557
132,-0.4929,1.1129,0.2444,-2.6336,-8.3359,-17.0992,114577
133,-0.5051,1.0978,0.2454,-7.5267,-6.6336,-12.2824,114597
134,-0.489,1.0621,0.2239,-6.1298,-5.2977,-8.4504,114617
135,-0.4814,1.0555,0.2119,1.4122,1.2061,-1.3588,114637
136,-0.5136,1.0797,0.23,8.0382,2.6718,5.5954,114657
137,-0.5063,1.1229,0.2351,6.7099,3.4122,11.1069,114677
138,-0.4909,1.0985,0.219,3.9466,4.1908,14.6718,114697
139,-0.4897,1.1239,0.2251,6.4046,9.7176,18.7863,114717
140,-0.4792,1.1454,0.2266,2.0382,13.4046,21.7252,114737
141,-0.4516,1.1034,0.2239,-4.9542,17.8931,24.1298,114757
142,-0.4348,1.0426,0.2112,2.2519,23.1527,25.5725,114777
143,-0.444,1.0629,0.209,17.1221,27.8015,27.3435,114797
144,-0.467,1.1205,0.2144,24.1603,26.8168,25.9237,114817
145,-0.476,1.162,0.2048,23.458,18.9695,19.8397,114837
146,-0.4587,1.1771,0.177,18.626,9.0382,12.2824,114857
147,-0.4675,1.1508,0.1812,14.5496,-0.626,1.1145,114877
148,-0.478,1.1991,0.1855,4.0382,-10.8626,-7.7481,114897
149,-0.4621,1.1659,0.1758,-7.2977,-16.7176,-17.1756,114917
150,-0.4504,1.1676,0.2,-9.1603,-17.2137,-22.6794,114937
151,-0.4677,1.1744,0.1956,-12.3282,-17.0458,-23.8321,114957
152,-0.4745,1.132,0.1973,-15.6183,-19.4809,-25.4809,114977
153,-0.4609,1.0797,0.1982,-8.8702,-17.9771,-29.7176,114997
154,-0.4709,1.1075,0.2046,-4.1679,-11.7634,-26.8092,115017
155,-0.5026,1.1381,0.2224,-12.3359,-11.4733,-23.145,115037
156,-0.5131,1.0941,0.2219,-22.1679,-15.229,-18.1756,115057
157,-0.4797,1.0201,0.2163,-16.5954,-13.1603,-10.9084,115077
158,-0.4609,1.0096,0.2056,3.6031,-3.8015,-3.0153,115097
159,-0.4794,1.0719,0.2029,20.8855,5.3817,5.6718,115117
160,-0.5014,1.151,0.196,22.7939,12.6641,13.3282,115137
161,-0.5109,1.1215,0.22,16.458,15.626,19.9847,115157
162,-0.4924,1.0922,0.2263,17.0153,17.5878,21.9008,115177
163,-0.4802,1.1107,0.1902,21.4962,20.2595,20.6794,115197
164,-0.4765,1.1566,0.1826,15.458,20.6412,24.771,115217
165,-0.4653,1.1019,0.1919,14.3435,21.2672,23.1298,115237
166,-0.4697,1.0717,0.1934,21.8092,20.2519,22.5191,115257
167,-0.4709,1.0878,0.1914,35.3282,15.7557,17.313,115277
168,-0.478,1.1542,0.1587,38.2519,7.3282,13.5802,115297
169,-0.4836,1.2096,0.1128,33.6412,-1.5267,5.5496,115317
170,-0.4787,1.2284,0.1313,17.8855,-8.6565,0.9084,115337
171,-0.4682,1.1967,0.1609,2.9924,-13.2061,-5.0534,115357
172,-0.4594,1.1283,0.1707,-5.6412,-15.2137,-14.4351,115377
173,-0.4506,1.1317,0.1523,-2.2366,-15.4656,-19.0687,115397
174,-0.4714,1.1742,0.1484,-1.855,-15.3359,-22.8244,115417
175,-0.5002,1.1827,0.1787,-10.0153,-20.0992,-25.4275,115437
0,0.2266,-0.0226,0.9043,-0.1985,8.5802,1.9542,118977
1,0.222,-0.1735,0.7964,3.3817,10.2595,-7.855,118997
2,0.1829,-0.2001,0.8137,0.0534,2.0916,-8.3893,119017
3,0.1927,-0.1996,0.7947,-3.3206,-3.2443,-10.8321,119037
4,0.2271,-0.1991,0.7778,-3.9847,-5.1145,-9.7405,119057
5,0.2464,-0.2025,0.7693,-1.542,-2.1603,-7.5878,119077
6,0.2393,-0.2023,0.781,-0.1221,1.1374,-6.0992,119097
7,0.231,-0.2145,0.8042,1.771,-0.4351,-5.3588,119117
8,0.2298,-0.2245,0.8245,3.5344,-6,-5.542,119137
9,0.2134,-0.2328,0.8867,7.2748,-16.1069,-10.0076,119157
10,0.5245,0.8221,1.7405,-2.5267,-35.9008,34.4046,119177
11,0.3082,-0.2084,0.8584,-23.626,-47.1527,21.0534,119197
12,0.3809,-0.2257,0.676,-31.9008,-4.1221,-6.145,119217
13,0.2388,0.1,0.8354,-60.0305,-1.771,24.2672,119237
14,0.3345,-0.3348,0.8784,-92.8626,0.8168,22.9771,119257
15,0.492,-0.5079,0.814,-91.0153,16.9313,32.9695,119277
16,0.4258,-0.5665,0.8027,-66.0763,38.5496,25.1069,119297
17,0.3326,-0.4835,0.8269,-60.5954,38.0153,22.0076,119317
18,0.3323,-0.4491,0.853,-77.1679,38.9237,36.9466,119337
19,0.2798,-0.5695,0.856,-83.7557,35.7481,56.4733,119357
20,0.2838,-0.6097,0.781,-74.2214,46.1374,73.9237,119377
21,0.1985,-0.5873,0.7312,-57.7252,58.8092,97.9008,119397
22,0.1097,-0.5836,0.7388,-46.5573,68.7939,110.7557,119417
23,0.0281,-0.5668,0.7119,-44.1908,70.3206,114.229,119437
24,0.0152,-0.598,0.6399,-44.8931,69.8092,119.4962,119457
25,-0.0244,-0.5878,0.5967,-35.145,75.4046,126.6107,119477
26,-0.0847,-0.506,0.5544,-23.374,80.7252,138.084,119497
27,-0.1564,-0.4161,0.5037,-14.5725,81.9695,151.1298,119517
28,-0.2224,-0.4137,0.4614,-2.458,78.0382,158.8779,119537
29,-0.2502,-0.3441,0.4197,7.9924,73.0305,158.0382,119557
30,-0.2827,-0.2013,0.377,5.0763,72.1298,153.8244,119577
31,-0.393,-0.1639,0.3965,-0.1756,66.8321,171.0229,119597
32,-0.444,-0.2384,0.4021,1.8015,52.1603,162.2824,119617
33,-0.4553,-0.2001,0.364,16.0382,43.1069,151.6947,119637
34,-0.477,-0.1295,0.3564,38.6412,43.0992,150.0076,119657
35,-0.5314,-0.0612,0.4189,71.4809,44.9618,158.3053,119677
36,-0.5244,-0.0739,0.4644,96.458,38.3893,158.8168,119697
37,-0.5226,0.0311,0.3936,101.5649,46.3511,152.145,119717
38,-0.6042,0.1469,0.3579,100.5725,59.7557,156.9771,119737
39,-0.7021,0.1976,0.3723,99.7557,55.374,157.5114,119757
40,-0.747,0.2811,0.3835,90.7328,37.3893,165.2137,119777
41,-0.7082,0.3319,0.2925,82.5573,26.2137,166.0687,119797
42,-0.7043,0.3453,0.2935,76.2977,19.7023,161.6488,119817
43,-0.7248,0.3737,0.324,74.9618,10.542,159.7023,119837
44,-0.6899,0.4486,0.3337,80.374,-3.1603,151.1145,119857
45,-0.5522,0.5553,0.2134,84.4046,2.7863,148.5878,119877
46,-0.5373,0.6237,0.1406,83.2901,30.3359,150.4657,119897
47,-0.6801,0.6158,0.2578,82.626,35.7557,142.084,119917
48,-0.7258,0.7235,0.3525,75.1603,15.5191,134.6794,119937
49,-0.5925,0.8348,0.251,55.4046,2.3969,134.9618,119957
50,-0.5844,0.9066,0.1936,32.9771,9.8779,133.5191,119977
51,-0.686,0.8778,0.2986,8.4046,-5.1679,118.9847,119997
52,-0.6359,0.8761,0.3416,-21.8092,-31.4198,96.8931,120017
53,-0.5478,0.8619,0.311,-48.3511,-45.6718,84.8702,120037
54,-0.5268,0.9357,0.3552,-65.8779,-51.5191,77.1756,120057
55,-0.4665,0.861,0.354,-55.0229,-54.5115,63.4962,120077
56,-0.4221,0.785,0.3679,-11.5115,-45.6794,53.6107,120097
57,-0.3962,0.8358,0.4114,33.7481,-32.7328,51.5496,120117
58,-0.4296,0.9093,0.45,53.084,-28.7405,48.916,120137
59,-0.3674,0.9042,0.3809,57.8244,-25.6794,41.7863,120157
60,-0.3613,0.9296,0.3257,68.626,-10.7023,36.7557,120177
61,-0.381,0.9962,0.3699,72.6107,4.4198,30.2061,120197
62,-0.4155,1.0382,0.4434,63.1603,5.4809,27.9542,120217
63,-0.3932,1.0409,0.4246,46.0076,1.771,25.5496,120237
64,-0.3671,1.0675,0.3503,31.8321,11.3817,25.1298,120257
65,-0.4235,1.0875,0.3662,22.3359,19.1069,26.3053,120277
66,-0.4416,1.0648,0.4353,17.0458,13.0305,21.5191,120297
67,-0.4084,1.1007,0.3909,8.9008,12.4809,17.6641,120317
68,-0.4172,1.1571,0.3257,-8.1527,17.0611,18.9847,120337
69,-0.4504,1.1146,0.3301,-22.2748,22.1603,19.687,120357
70,-0.4853,1.0311,0.4216,-19.8473,10.7634,12.1756,120377
71,-0.3994,1.0009,0.3582,-8.6947,8.3969,6.4962,120397
72,-0.4291,1.0284,0.3521,2.313,11.9313,11.2214,120417
73,-0.4484,1.045,0.3474,7.6183,11.7634,15.0382,120437
74,-0.4267,1.025,0.3423,12.7328,17.4198,21.3893,120457
75,-0.4348,1.0067,0.3435,24.7023,24.6794,28.9695,120477
76,-0.4394,1.0084,0.3499,41.5573,26.084,30.7099,120497
77,-0.4206,1.1478,0.342,51.0534,24.1221,31.8015,120517
78,-0.4306,1.1708,0.3442,46.916,20.3359,23.5496,120537
79,-0.4628,1.1898,0.3191,28.2366,12.3664,13.6947,120557
80,-0.4621,1.204,0.2881,3.626,3.542,3.4427,120577
81,-0.4059,1.1915,0.261,-7.3435,0.7939,-6.3664,120597
82,-0.4286,1.1171,0.3125,-2.5725,-2.3893,-13.7405,120617
83,-0.4384,1.1139,0.3076,1.6336,-7.1069,-18.6641,120637
84,-0.4572,1.1288,0.3071,-3.1298,-14.0763,-22.6565,120657
85,-0.4457,1.1583,0.2852,-12.6489,-15.8855,-21.5267,120677
86,-0.4265,1.099,0.2693,-13.3053,-16.1756,-24.7634,120697
87,-0.4487,1.0741,0.3162,-4.9847,-13.7786,-21.6565,120717
88,-0.4736,1.0731,0.3389,-5.626,-14.3664,-16.0916,120737
89,-0.4951,1.0758,0.3286,-12.145,-17,-10.5573,120757
90,-0.4599,1.035,0.2673,-9.229,-15.5802,-6.2214,120777
91,-0.4496,1.0399,0.2932,4.8855,-11.1374,-0.7023,120797
92,-0.4724,1.0707,0.3538,15.6565,-10.1298,1.0916,120817
93,-0.457,1.1163,0.3206,15.9847,-7.7328,5.0763,120837
94,-0.4538,1.1544,0.3264,2.3435,-2.0611,8.0229,120857
95,-0.4623,1.0944,0.3186,-8.9313,4.6107,13.5191,120877
96,-0.4455,1.0804,0.3335,-9.4733,7.5878,19.0916,120897
97,-0.4186,1.0702,0.2917,-0.8702,12.9084,21.8702,120917
98,-0.4133,1.0807,0.2671,10.5802,18.1298,23.7557,120937
99,-0.423,1.1317,0.2681,15.5878,22.4809,30.3969,120957
100,-0.4455,1.1176,0.3083,15.8931,20.3435,30.5649,120977
101,-0.412,1.077,0.3018,22.1527,14.084,26.0076,120997
102,-0.3932,1.149,0.2771,31.2901,16.7786,23.8931,121017
103,-0.4191,1.1686,0.2903,27.7863,14.3893,16.1298,121037
104,-0.4316,1.191,0.2776,15.9771,10.7634,10.6794,121057
105,-0.4201,1.1847,0.2393,7.4962,6.8244,4.3893,121077
106,-0.4099,1.1754,0.2659,0.8473,4.8015,-0.5038,121097
107,-0.4328,1.1608,0.2915,-1.6031,-2.5038,-8.2901,121117
108,-0.4133,1.1622,0.2578,-3.6031,-6.9542,-13.9618,121137
109,-0.3986,1.1478,0.2534,-0.0153,-8.2519,-17.8244,121157
110,-0.4123,1.1832,0.2615,-0.0992,-9.4275,-15.6718,121177
111,-0.4394,1.1451,0.2839,-6.1221,-11.8779,-16.3053,121197
112,-0.4416,1.0865,0.2803,-4.7176,-15.8092,-19.5191,121217
113,-0.4343,1.1105,0.2578,3.4504,-12.9695,-22.7634,121237
114,-0.4318,1.1654,0.2415,3.771,-8.458,-24.084,121257
115,-0.4445,1.1456,0.2556,-1.9847,-7.2443,-23.0229,121277
116,-0.4531,1.1188,0.2786,-5.145,-7.5038,-18.7634,121297
117,-0.457,1.0902,0.2812,-5.0458,-7.084,-13.855,121317
118,-0.4474,1.0668,0.271,0.0763,-5.4427,-10.5649,121337
119,-0.4316,1.097,0.2532,6.3588,0.626,-2.9695,121357
120,-0.4584,1.1005,0.2607,10.6794,4.4733,3.1908,121377
121,-0.4601,1.1029,0.2903,11.6107,5.1221,8.855,121397
122,-0.4489,1.0968,0.2832,15.1679,9.5191,11.5115,121417
123,-0.4523,1.1544,0.2815,12.8626,13.0229,16.6641,121437
124,-0.4443,1.1725,0.2505,4.5344,13.7634,20.6794,121457
125,-0.4306,1.1512,0.2253,1.3282,14.9466,22.7557,121477
126,-0.4108,1.0719,0.2368,7.8855,19.5802,22.3588,121497
127,-0.4357,1.0751,0.2585,20.2672,22.3893,20.4122,121517
128,-0.446,1.1322,0.2551,23.0916,15.7176,18.9084,121537
129,-0.4243,1.2081,0.2124,18.542,10.7557,15.7328,121557
130,-0.4196,1.1947,0.1992,11.4122,8.9389,11.5802,121577
131,-0.4162,1.1852,0.2393,5.0916,6.9542,6.5725,121597
132,-0.4203,1.1595,0.2473,-0.2519,3.9466,0.1832,121617
133,-0.4169,1.1608,0.2393,-3.5725,2.5954,-4.374,121637
134,-0.426,1.1508,0.2168,-2.0229,0.7557,-10.4504,121657
135,-0.4077,1.1881,0.1899,1.2672,-2.3893,-14.8015,121677
136,-0.4164,1.1981,0.2029,-3.1908,-3.8092,-17.8244,121697
137,-0.4526,1.1508,0.2515,-10.9466,-10.6031,-23.6336,121717
138,-0.4531,1.1525,0.2415,-17.3664,-14.8473,-26.7863,121737
139,-0.4448,1.142,0.2283,-18.8473,-15.374,-30.9466,121757
140,-0.4313,1.1332,0.2053,-16.0076,-14.9237,-30.9542,121777
141,-0.4433,1.1129,0.1931,-12.3511,-8.4198,-23.4122,121797
142,-0.4516,1.0782,0.2104,-9.9389,-0.7176,-14.5496,121817
143,-0.4457,1.0812,0.1934,-3.6641,6.8779,-6.4809,121837
144,-0.4472,1.0795,0.2,3.8397,13.5802,0.4809,121857
145,-0.477,1.0775,0.2354,12.8473,18.1298,2.3511,121877
146,-0.4626,1.1456,0.2209,13.7634,18.687,5.0382,121897
147,-0.4567,1.2047,0.2102,2.3588,21.1756,8.6565,121917
148,-0.4431,1.1478,0.187,-8.5954,21.3053,11.2137,121937
149,-0.4594,1.0448,0.2075,-2.2901,25.1603,12.6794,121957
150,-0.4318,1.047,0.2031,15.5573,31.2366,13.771,121977
151,-0.4455,1.0751,0.2046,29.1527,37.0534,16.3282,121997
152,-0.4623,1.1014,0.1941,38.0763,38.2672,15.1069,122017
153,-0.4816,1.191,0.1545,35.7634,41.626,16.3053,122037
154,-0.5021,1.1439,0.186,25.2061,36.4046,9.687,122057
155,-0.4767,1.0826,0.1904,22.0687,29.2443,-1.1145,122077
156,-0.5339,1.1996,0.2075,19.2137,17.687,-6.5344,122097
157,-0.477,1.2198,0.1028,8.6947,9.1527,-7.4351,122117
158,-0.4831,1.183,0.0994,-0.0534,6.3664,-12.458,122137
159,-0.5078,1.1642,0.1206,-5.1069,5.5267,-16.8779,122157
160,-0.5378,1.1654,0.1389,-14.2214,1.687,-20.1603,122177
161,-0.5449,1.1217,0.1621,-22.7023,-3.9771,-23.2366,122197
162,-0.5327,1.0736,0.1824,-20.9084,-9.0992,-25.5344,122217
163,-0.5392,1.0844,0.1775,-14.6107,-15.1908,-29.3817,122237
164,-0.5568,1.1449,0.1548,-16.6565,-21.3282,-31.2214,122257
165,-0.56,1.1962,0.1719,-28.5191,-27.0916,-28.5802,122277
166,-0.5578,1.1405,0.1821,-40.9237,-32.5115,-29.4046,122297
167,-0.527,1.0573,0.199,-42.4809,-30.5114,-26.2137,122317
168,-0.5095,0.9948,0.1924,-33.916,-23.2595,-21.6336,122337
169,-0.4985,0.9872,0.1912,-22.1069,-11.4962,-12.3511,122357
170,-0.527,0.9869,0.2275,-9.5878,-3.2672,-1.8473,122377
171,-0.506,1.0023,0.2124,5.229,7,8.3206,122397
172,-0.5056,0.9945,0.2065,19.1603,15.2977,18.5802,122417
173,-0.4911,0.995,0.1882,37.5267,25.4122,22.9084,122437
174,-0.5324,1.0846,0.1956,48.3053,28.0229,30.6489,122457
175,-0.5412,1.193,0.1667,37.5191,22.0534,35.4046,122477
0,0.117,-0.2257,0.8665,-0.3511,6.9313,2.4733,125597
1,0.2237,-0.2823,0.6858,0.2672,6.626,1.2443,125617
2,0.2059,-0.2933,0.73,2.4198,4.8931,1.9771,125637
3,0.2249,-0.3009,0.7612,5.6183,0.3588,2.2977,125657
4,0.253,-0.2882,0.7417,4.4122,-4.4198,-3.9313,125677
5,0.2591,-0.2819,0.7114,3.2443,-3.4351,-10.542,125697
6,0.2589,-0.3009,0.7231,1.9008,-4.9389,-13.7328,125717
7,0.2523,-0.2875,0.7373,-0.7863,-9.0458,-10.5573,125737
8,0.2449,-0.2628,0.7344,-3.7405,-12.1145,-7.2519,125757
9,0.2503,-0.2548,0.7229,-6.2672,-9.8931,-3.6336,125777
10,0.1082,-0.3766,0.8081,-3.9466,-2.3969,3.084,125797
11,0.3006,-0.316,0.8508,-7.9008,-12.8321,7.4427,125817
12,0.2486,-0.2697,0.759,-17.8626,-14.9924,-3.8244,125837
13,0.1976,-0.1854,0.7722,-31.0229,-11.7481,8.4351,125857
14,0.3531,-0.224,0.7239,-46.3511,-10.1527,18.1298,125877
15,0.3716,-0.4725,0.73,-41.0076,-8.1908,9.6718,125897
16,0.4512,-0.4794,0.7412,-29.7176,-1.9237,6.5649,125917
17,0.3716,-0.4406,0.7688,-23.2366,14.2061,13.5115,125937
18,0.3214,-0.6205,0.769,-5.3282,26.7786,17.374,125957
19,0.4405,-0.6483,0.7212,55.8244,51.0534,8.2366,125977
20,0.347,-0.3903,0.8325,88.8015,70.4733,10.9008,125997
21,0.3216,-0.2155,0.877,63.5267,78.4046,33.626,126017
22,0.2503,-0.2987,0.8906,19.0534,77.5954,48.2366,126037
23,0.2591,-0.4225,0.8411,-3.6565,81.6641,54.7023,126057
24,0.1993,-0.462,0.8442,2.0153,88.8626,65.9542,126077
25,0.1409,-0.3905,0.863,12.1603,94.1985,78.5115,126097
26,0.1082,-0.3199,0.8298,5.4733,95.6412,85.8931,126117
27,0.0281,-0.244,0.7761,-18.9389,96.2137,107.229,126137
28,-0.007,-0.3099,0.6929,-37.1298,98.2901,116.1069,126157
29,-0.1081,-0.3597,0.6897,-42.916,96.9389,118.6565,126177
30,-0.1435,-0.3593,0.6489,-31.6947,93.8779,120.1985,126197
31,-0.1689,-0.3492,0.5959,-13.5267,92.7939,122.6183,126217
32,-0.1926,-0.3082,0.4922,6.6107,97.7176,129.4427,126237
33,-0.2805,-0.3239,0.4753,30.4809,105.3053,130.9237,126257
34,-0.3122,-0.2826,0.4399,68.7939,109.2824,122.0992,126277
35,-0.4084,-0.1185,0.4563,107.2214,115.8626,123.5802,126297
36,-0.5185,0.0309,0.5266,116.8168,109.9008,129.8473,126317
37,-0.5698,0.142,0.5027,102.3511,95.7481,134.3969,126337
38,-0.5993,0.2013,0.4722,81.3206,81.5267,138.3053,126357
39,-0.5956,0.2311,0.417,61.6565,75.855,156.9389,126377
40,-0.6086,0.1937,0.4304,53.9771,77.8168,154.4733,126397
41,-0.6313,0.2135,0.4773,55.0458,74.8168,156.7176,126417
42,-0.6135,0.306,0.4299,48.7099,70.7023,157.1603,126437
43,-0.663,0.4591,0.3591,31.0534,71.9237,160.3817,126457
44,-0.7209,0.3807,0.3604,23.8168,63.2214,156.7099,126477
45,-0.6686,0.3644,0.3213,37.1756,50.1756,149.1679,126497
46,-0.5656,0.4886,0.2451,53.8626,68.6107,148.2214,126517
47,-0.6591,0.5809,0.2834,54.6489,81.5878,149,126537
48,-0.7538,0.6271,0.2979,49.2443,73.8779,145.1298,126557
49,-0.7609,0.5988,0.3081,46.2519,54.0153,140.4504,126577
50,-0.6662,0.712,0.2036,50.0153,45.9237,137.0458,126597
51,-0.5908,0.8202,0.1047,50.313,55.2977,137.6565,126617
52,-0.6684,0.8373,0.1162,41.3206,61.5725,132.2595,126637
53,-0.7343,0.8334,0.2087,31.084,45.855,122.2901,126657
54,-0.6496,0.7948,0.2007,20.0687,26,108.4046,126677
55,-0.5839,0.8492,0.157,17.0687,20.6412,103.0534,126697
56,-0.5788,0.9286,0.1497,6.1679,20.855,103.4427,126717
57,-0.5798,0.9003,0.1877,-3.8015,11.8855,93.9542,126737
58,-0.5248,0.8895,0.2217,-0.0687,4.5573,87.5725,126757
59,-0.4926,0.9464,0.1902,10.5878,0.0916,81.6489,126777
60,-0.4977,0.9894,0.1729,19.6947,-4.6412,74.9008,126797
61,-0.475,1.0468,0.1934,21.6947,-6.9847,70.1756,126817
62,-0.4225,1.057,0.1926,27.5191,-7.4809,60.0382,126837
63,-0.4433,1.089,0.1719,39.5496,-4.2214,55.145,126857
64,-0.4142,1.1227,0.0786,39.5954,2.7099,51.8244,126877
65,-0.4684,1.1012,0.1504,34.374,6.9771,47.0687,126897
66,-0.4733,1.1495,0.2217,25.7634,0.5878,46.4351,126917
67,-0.4494,1.1898,0.2273,15.2901,-3.4962,47.0153,126937
68,-0.3845,1.1549,0.1851,16.3817,-1.0229,41.7099,126957
69,-0.3532,1.1478,0.1646,26.4122,6.374,37.4504,126977
70,-0.3549,1.2059,0.1543,25.4504,13.8779,38.2443,126997
71,-0.3937,1.2277,0.1665,12.9466,14.0153,39.1374,127017
72,-0.3339,1.181,0.1284,2.6565,16.5725,35.2137,127037
73,-0.3,1.1046,0.1074,8.8397,24.0458,28.9466,127057
74,-0.3381,1.182,0.146,9.9313,30.4733,31.229,127077
75,-0.4099,1.1698,0.218,-2.9084,31.1756,27.1679,127097
76,-0.4028,1.1669,0.146,-4.9389,23.6183,22.8092,127117
77,-0.3869,1.149,0.1025,8.855,24.229,22.4886,127137
78,-0.3801,1.1908,0.0977,23.5038,21.4122,22.458,127157
79,-0.3996,1.1759,0.1099,30.1985,11.1145,20.9924,127177
80,-0.3835,1.2777,0.0886,19.3435,2.8015,19.1603,127197
81,-0.3547,1.296,0.071,3.7481,-2.4656,10.8321,127217
82,-0.3412,1.2526,0.061,-1.8092,-2.3969,-1.1298,127237
83,-0.371,1.2728,0.0991,-7,-2.0382,-9.9618,127257
84,-0.3879,1.2423,0.1121,-18.6718,-6.3969,-17.8397,127277
85,-0.3742,1.2172,0.1135,-20.0382,-10,-25.0763,127297
86,-0.3828,1.2423,0.1328,-19.2977,-12.2061,-27.7176,127317
87,-0.4067,1.2286,0.1389,-21.4122,-16.3435,-28.4733,127337
88,-0.4116,1.1544,0.1255,-15.7863,-17.0763,-31.7481,127357
89,-0.4255,1.2001,0.1099,-9.1908,-14.1221,-30.1603,127377
90,-0.4184,1.1888,0.0945,-11.8779,-12.6565,-30.6336,127397
91,-0.4282,1.1715,0.1084,-12.3588,-9.4809,-31.0916,127417
92,-0.455,1.2184,0.1174,-16.5267,-8.9313,-25.7863,127437
93,-0.465,1.1444,0.1577,-21.4504,-14.4275,-23.4198,127457
94,-0.4028,1.0665,0.1179,-9.0305,-8.9237,-20.2672,127477
95,-0.4216,1.1051,0.1414,9.0763,4.3053,-10.4504,127497
96,-0.4504,1.1307,0.146,14.1908,5.4962,-3.374,127517
97,-0.4438,1.2125,0.1201,18.3817,6.8473,12.458,127537
98,-0.475,1.2152,0.1868,5.4733,3,30.4275,127557
99,-0.4506,1.0946,0.1133,4.4275,1.2748,22.5267,127577
100,-0.4326,1.2321,0.1072,7.7634,2.2977,31.3664,127597
101,-0.4277,1.1967,0.1504,-2.8931,5.3206,35.1527,127617
102,-0.4201,1.1539,0.1577,-2.9695,11.4504,31.0229,127637
103,-0.3879,1.1244,0.1343,9.7786,22.4656,30,127657
104,-0.3991,1.2015,0.1094,20.7863,26.7405,29.1298,127677
105,-0.4037,1.2279,0.1016,18.855,20.916,27.8626,127697
106,-0.3967,1.225,0.0896,14.6718,14.3588,20.6947,127717
107,-0.3757,1.222,0.0713,12.3588,7.1908,11.7176,127737
108,-0.3747,1.2479,0.0842,4.7939,2.6641,5.0458,127757
109,-0.3754,1.2323,0.1018,-4.5802,-0.5878,-0.8473,127777
110,-0.3852,1.1991,0.114,-6.5725,-2.2137,-5.855,127797
111,-0.3906,1.1918,0.1069,-1.6031,-5.1298,-12.0611,127817
112,-0.3727,1.2208,0.0813,4.4962,-5.2672,-19.1756,127837
113,-0.3984,1.2653,0.0984,3.1298,-6.5954,-20.1756,127857
114,-0.4108,1.2374,0.1033,-7.2443,-10.687,-22.0687,127877
115,-0.4203,1.1796,0.1045,-8.8779,-14.0687,-24.5191,127897
116,-0.4133,1.1957,0.1064,-3.7405,-13.9542,-26.1298,127917
117,-0.414,1.2081,0.0906,-2.7252,-10.3664,-25.5191,127937
118,-0.4277,1.1837,0.0996,-4.6412,-7.7786,-21.7481,127957
119,-0.4235,1.1678,0.1167,-6.0076,-6.4198,-17.3053,127977
120,-0.4291,1.1759,0.115,-3.7557,-3.0687,-15.9924,127997
121,-0.4323,1.2025,0.1077,-7.0763,-0.8855,-13.1603,128017
122,-0.4328,1.193,0.1211,-11.3206,-0.4962,-9.0153,128037
123,-0.4394,1.1664,0.1428,-7.9695,-0.458,0.145,128057
124,-0.4372,1.1522,0.1414,-1.229,0.2748,5.7328,128077
125,-0.4304,1.1869,0.1091,-4.4351,0.3511,11.8779,128097
126,-0.4431,1.1149,0.0989,-0.6794,-0.1679,13.4656,128117
127,-0.4318,1.1837,0.1216,4.8092,0.2748,17.8168,128137
128,-0.433,1.2003,0.165,2.6412,0.8244,21.8702,128157
129,-0.4103,1.1725,0.1267,5.9847,2.8168,24.2901,128177
130,-0.4125,1.1805,0.114,12.4351,8.0076,29.0687,128197
131,-0.3932,1.2037,0.1306,9.2595,9.9313,32.7023,128217
132,-0.3625,1.1971,0.1121,11.6336,12.313,34.5725,128237
133,-0.3522,1.1837,0.1157,20.7786,14.6412,35.5878,128257
134,-0.3581,1.1813,0.0972,32.855,14.0916,28.5802,128277
135,-0.3688,1.2404,0.0867,32.2519,8.0458,20.8473,128297
136,-0.371,1.2941,0.0815,16.855,2.8779,12.1145,128317
137,-0.3632,1.2758,0.0959,0.3053,-0.1756,1.916,128337
138,-0.3622,1.2235,0.1091,-7.1145,-1.3282,-9.0534,128357
139,-0.3578,1.2184,0.1187,-6.7099,-1.626,-17.8931,128377
140,-0.3845,1.2262,0.1223,-5.6107,-5.1908,-26.5954,128397
141,-0.3705,1.2706,0.062,-9.8015,-7.8168,-33.2366,128417
142,-0.3864,1.2789,0.062,-15.2824,-9.4275,-32.3588,128437
143,-0.3776,1.1881,0.075,-14.9847,-9.0763,-33.3359,128457
144,-0.4211,1.1473,0.1062,-6.0305,-9.9695,-31.8473,128477
145,-0.4196,1.1915,0.1082,-2.1756,-9.9237,-28.2824,128497
146,-0.413,1.1927,0.095,-5.8015,-7.5802,-27.4351,128517
147,-0.4145,1.2191,0.0857,-6.9695,-3.4733,-24.4733,128537
148,-0.4308,1.1781,0.0989,-9.5954,-3.6107,-20.916,128557
149,-0.4372,1.1537,0.1191,-10.1298,-3.5954,-17.5038,128577
150,-0.4399,1.181,0.1128,-12.5038,0.0076,-12.6107,128597
151,-0.4318,1.1742,0.1204,-20.0305,11.3282,-8.0992,128617
152,-0.4423,1.1361,0.1182,-17.8168,17.8168,0.9389,128637
153,-0.4621,1.1571,0.1287,-8.458,19.7939,13.2061,128657
154,-0.4509,1.1549,0.1021,-1.542,20.7328,20.374,128677
155,-0.4865,1.1942,0.1501,-4.1527,18,27.5267,128697
156,-0.4582,1.1488,0.1208,0.3511,10.6107,31.8397,128717
157,-0.4194,1.1486,0.1121,7.3359,8.771,38.0076,128737
158,-0.3847,1.1703,0.1125,19.4809,12.6336,40.0076,128757
159,-0.3647,1.1547,0.0952,28.7939,17.3588,38.2137,128777
160,-0.374,1.1984,0.0923,34.0916,17.4733,36.0534,128797
161,-0.3903,1.2194,0.0862,30.0687,11.3664,29.4351,128817
162,-0.3891,1.265,0.0686,22.9924,4.542,21.0763,128837
163,-0.3627,1.2672,0.0496,13.8397,-0.4656,12.0305,128857
164,-0.3535,1.2418,0.0337,10.6107,-2.6641,3.5038,128877
165,-0.3608,1.2543,0.072,2.5878,-2.8855,-1.1298,128897
166,-0.3749,1.2067,0.0925,1.2901,-4.2366,-8.0382,128917
167,-0.3847,1.2047,0.0869,2.3969,-7.1985,-14.9847,128937
168,-0.3701,1.2401,0.0273,-0.0458,-9.4351,-21.3817,128957
169,-0.3849,1.2931,0.0188,-8.6718,-13.0611,-23.1298,128977
170,-0.3954,1.2677,0.0457,-18.4504,-19.9237,-23.5725,128997
171,-0.3876,1.1854,0.0903,-19.4809,-22.5573,-27.7939,129017
172,-0.4028,1.1893,0.1033,-12.0076,-18.6565,-28.3435,129037
173,-0.4045,1.2103,0.0996,-9.7634,-17.7328,-29.2901,129057
174,-0.3818,1.1625,0.0688,-6.8779,-12.4351,-32.4504,129077
175,-0.4116,1.2294,0.0908,-6.1527,-6.5573,-26.8473,129097
0,0.0933,-0.1813,0.8987,-1.3282,-1.1603,2.8931,131477
1,0.1619,-0.225,0.7888,-0.1679,1.8626,0.6107,131497
2,0.1724,-0.2384,0.8022,-1.9008,-1.7252,-3.0763,131517
3,0.1849,-0.2135,0.781,-3.4962,-3.1527,-6.0992,131537
4,0.1702,-0.2264,0.7996,-4.9924,-8.7481,-6.2672,131557
5,0.2027,-0.2462,0.7966,-4.4427,-12.9847,-8.5191,131577
6,0.2178,-0.2589,0.8013,1.0229,-16.1603,-9.0611,131597
7,0.241,-0.2306,0.8135,2.6412,-16.3053,-9.2977,131617
8,0.1988,-0.0172,0.8179,-8.7176,-21.5191,-6.0305,131637
9,0.2271,-0.3026,0.8958,-18.7557,-10.9924,3.5573,131657
10,0.3892,-0.1398,0.9253,-35.313,-10.8168,21.5878,131677
11,0.2034,-0.1932,0.8657,-44.7328,1.1527,16.7863,131697
12,0.2847,-0.2059,0.8469,-72.687,7.8855,15.7634,131717
13,0.367,-0.5616,0.8301,-85.0534,13.4656,19.7099,131737
14,0.3765,-0.5924,0.8467,-56.8244,41.5038,23.3664,131757
15,0.3253,-0.5331,0.9392,-37.4275,62.4122,28.9084,131777
16,0.2676,-0.4813,0.9126,-29.4198,75.3282,55.2061,131797
17,0.1714,-0.5387,0.9148,-28.7863,82.5725,74.0382,131817
18,0.1629,-0.556,0.8569,-31.1069,84.4351,79.5343,131837
19,0.0909,-0.5277,0.8411,-31.1527,84.9313,90.9237,131857
20,0.0611,-0.525,0.7722,-31.1832,87.145,106.4198,131877
21,0.0057,-0.536,0.71,-26.3206,90.0992,122.0534,131897
22,-0.0512,-0.5153,0.675,-22.0916,86.9542,132.6794,131917
23,-0.0817,-0.402,0.5911,-21.1527,88.626,143.2137,131937
24,-0.1887,-0.35,0.5198,-20.8244,89.0992,167.6107,131957
25,-0.2436,-0.3663,0.4785,-17.6031,81.2519,164.3512,131977
26,-0.29,-0.3265,0.4631,-7.1908,75.7786,167.0458,131997
27,-0.3195,-0.2711,0.4175,7.3893,70.3893,164.4122,132017
28,-0.3745,-0.1857,0.3484,25.5878,77.3053,168.4657,132037
29,-0.4675,-0.121,0.3801,42.4962,76.0916,171.5878,132057
30,-0.4982,-0.0231,0.4045,60.9771,69.5878,169.4427,132077
31,-0.5273,0.0394,0.3875,72.1985,68.4657,170.9389,132097
32,-0.5788,0.09,0.3516,69,63.3435,170.7634,132117
33,-0.6113,0.2079,0.3335,65.6947,55.9542,171.5038,132137
34,-0.6682,0.2384,0.3621,55.3969,45.2443,178.8321,132157
35,-0.6555,0.2501,0.3279,54.1603,32.2519,169.5802,132177
36,-0.6198,0.2968,0.2524,58.4733,30.2214,175.2595,132197
37,-0.6418,0.4093,0.2529,61.1221,33.6794,173.7634,132217
38,-0.6711,0.4359,0.29,59.7099,26.374,168.0229,132237
39,-0.6472,0.4786,0.2751,60.2977,18.5649,163.458,132257
40,-0.5971,0.5809,0.2346,63.4427,20.8702,160.9542,132277
41,-0.6252,0.6244,0.2644,63.1069,19.7786,154.2977,132297
42,-0.6188,0.6444,0.2742,65.8244,14.3893,144.7557,132317
43,-0.6081,0.7469,0.3093,67.5954,12.5344,141.8168,132337
44,-0.5908,0.7645,0.2939,68.1985,12.2137,133.1221,132357
45,-0.6081,0.8278,0.2803,67.084,14.2061,127.2824,132377
46,-0.6379,0.8673,0.324,61.2672,8.3969,117.9771,132397
47,-0.5917,0.9164,0.2964,51.9389,2.3893,103.1908,132417
48,-0.5695,0.9508,0.269,40.3511,1.4809,96.7634,132437
49,-0.5612,0.9611,0.2734,30.5954,-0.2214,86.8015,132457
50,-0.5578,0.9659,0.3125,12.458,-6.7405,76.8931,132477
51,-0.5512,0.9762,0.3479,-5.1756,-18.1908,69.0458,132497
