Index,accX,accY,accZ,girX,girY,girZ,Time(ms)
0,0.0115,-0.0623,0.7158,0.1145,13.7328,-4.6107,67356
1,-0.0746,-0.0845,0.8179,-1.4504,5.6565,-1.5115,67376
2,-0.0952,-0.0872,0.8169,3.0687,8.1527,-1.8397,67396
3,-0.0646,-0.0901,0.8203,4.3969,10.7786,-7.0611,67416
4,-0.0678,-0.0901,0.8596,4.5344,7.5344,-5.2748,67436
5,-0.0766,-0.0935,0.9021,1.2595,1.4198,-4.4733,67456
6,-0.0837,-0.1335,0.9058,7.8779,0.2901,-8.0382,67476
7,-0.0678,-0.1509,0.9045,5.3969,-4.8168,-12.7481,67496
8,-0.664,0.0598,1.4229,-23.0534,-59.6183,-29.6183,67516
9,0.053,0.1497,0.7278,-26.0305,-6.3053,13.9542,67536
10,-0.093,-0.0034,0.9658,-39.0229,-6.4122,11.2824,67556
11,-0.0964,-0.0413,1.0125,-74.7099,-20.855,11.2519,67576
12,0.0037,-0.0525,1.0027,-108.2672,-23.4122,13.5191,67596
13,0.0032,-0.2061,0.8967,-138.6031,-0.2214,29.4046,67616
14,-0.0436,-0.3662,0.9009,-145.5343,23.3817,39.9008,67636
15,-0.1569,-0.3931,1.0042,-136.2137,36.6794,48.0305,67656
16,-0.185,-0.3792,0.9878,-134.2061,37.542,53.8397,67676
17,-0.1711,-0.3572,0.917,-162.8092,38.4809,64.687,67696
18,-0.2148,-0.3931,0.7266,-198.3664,43.2672,81.0534,67716
19,-0.2734,-0.5791,0.5723,-206.2214,48.0992,94.8855,67736
20,-0.2729,-0.7136,0.4819,-181.0153,49.8092,107.8855,67756
21,-0.3144,-0.6028,0.384,-146.1985,59.0611,122.687,67776
22,-0.4081,-0.5164,0.3423,-128.4657,56.1985,142.9542,67796
23,-0.4389,-0.4871,0.2646,-119.5954,50.8321,166.5725,67816
24,-0.4892,-0.5364,0.2209,-103.5649,39.2824,177.7099,67836
25,-0.4997,-0.5959,0.1243,-65.0763,31.5573,177.229,67856
26,-0.5678,-0.458,0.1184,-29.0153,29.0305,173.8244,67876
27,-0.6274,-0.3196,0.1208,-6.3206,15.5115,177.7786,67896
28,-0.59,-0.2637,0.0547,1.3893,5.8702,185.3817,67916
29,-0.6022,-0.1714,0.0254,12.6183,6.5038,188.3206,67936
30,-0.6142,-0.1165,0.0645,16.5573,3.1298,186.458,67956
31,-0.5827,-0.0627,0.0774,10.7099,-2.4122,179.7176,67976
32,-0.6149,0.0049,0.084,7.5038,0.1756,170.542,67996
33,-0.6657,0.0781,0.0962,1.2366,-2.5649,162.7252,68016
34,-0.6799,0.1304,0.1099,-7.7099,-9.3206,154.8397,68036
35,-0.6723,0.156,0.1082,-14.7252,-13.5573,146.5649,68056
36,-0.6628,0.2231,0.092,-25.8931,-13.458,138.1069,68076
37,-0.6845,0.2222,0.1155,-35.229,-18.916,133.2748,68096
38,-0.6955,0.2183,0.1226,-33.7863,-24.0382,123.8473,68116
39,-0.6916,0.2551,0.1545,-21.7634,-27.2824,116.3206,68136
40,-0.7009,0.2488,0.2185,-7.3359,-27.4962,109.7863,68156
41,-0.6957,0.29,0.2249,6.1832,-27.5191,104.084,68176
42,-0.6808,0.3647,0.208,14.0305,-17.8626,103.4733,68196
43,-0.7253,0.4258,0.2617,11.9008,-10.3969,103.9695,68216
44,-0.7658,0.4385,0.3318,11.8092,-15.5267,100.9084,68236
45,-0.736,0.4529,0.301,17.5344,-18.5649,95.7023,68256
46,-0.7321,0.4773,0.2747,26.6489,-17.1145,87.6183,68276
47,-0.7526,0.5793,0.2583,25.9695,-17.9084,75.5878,68296
48,-0.7944,0.6897,0.291,13.7786,-25.1908,75.3969,68316
49,-0.799,0.6792,0.3167,-2.6947,-34.2824,67.0076,68336
50,-0.7534,0.6611,0.2837,-6.9084,-39.7481,60.9542,68356
51,-0.748,0.6992,0.3025,-2.9618,-34.4198,57.4427,68376
52,-0.7805,0.79,0.3257,-8.6641,-34.0763,50.6947,68396
53,-0.7914,0.8174,0.3157,-26.4198,-40.4046,42.6412,68416
54,-0.7538,0.7524,0.3494,-34.7176,-45.0534,31.458,68436
55,-0.7038,0.7332,0.3506,-25.3435,-40.0763,20.1527,68456
56,-0.7111,0.7407,0.3604,-17.855,-29.6718,13.6947,68476
57,-0.7695,0.7354,0.3799,-15.9618,-28.7099,8.5191,68496
58,-0.7646,0.7485,0.4009,-6.8702,-31.3969,5.2824,68516
59,-0.6701,0.781,0.4026,1.1527,-18.5267,4.3206,68536
60,-0.6784,0.6858,0.3606,6.4962,-1.7557,9.3282,68556
61,-0.7453,0.7012,0.3721,7.7557,3.2595,12.9924,68576
62,-0.8046,0.6711,0.4282,6.3359,-6.8321,8.2672,68596
63,-0.7331,0.7073,0.3953,8.8626,-15.3664,5.0076,68616
64,-0.6789,0.7395,0.3772,8.9771,-5.0229,8.0611,68636
65,-0.7299,0.708,0.4138,8.7863,1.3282,8.687,68656
66,-0.7448,0.7026,0.4041,12.4122,2.8626,8.2137,68676
67,-0.7224,0.7073,0.4058,21.4122,11.6336,8.4198,68696
68,-0.747,0.7231,0.3914,32.8931,17.1221,8.2061,68716
69,-0.7702,0.7759,0.377,39.6107,16.8931,9.626,68736
70,-0.7656,0.7969,0.3713,36.2901,13.0076,10.313,68756
71,-0.7656,0.8064,0.3977,27.3969,10.2061,11.626,68776
72,-0.7836,0.8074,0.416,16.4733,9.542,8.4351,68796
73,-0.7895,0.802,0.4309,9.6412,4.2595,-0.7481,68816
74,-0.7817,0.8181,0.3831,1.6489,-0.0153,-7.0458,68836
75,-0.7773,0.8264,0.3818,-11.9313,-2.0763,-7.6718,68856
76,-0.7941,0.8027,0.4048,-24.9618,-9.0229,-9.916,68876
77,-0.7651,0.7466,0.4031,-27.7939,-17.2748,-11.9695,68896
78,-0.7516,0.7437,0.3723,-19.4504,-14.7863,-10.6412,68916
79,-0.7797,0.7173,0.4224,-16.1374,-15.2214,-8.7786,68936
80,-0.7602,0.7214,0.4033,-13.0229,-19.4809,-9.0229,68956
81,-0.7057,0.7219,0.3943,-12.4504,-15,-5.7023,68976
82,-0.7272,0.7056,0.4167,-9.7328,-6.6183,-2.8626,68996
83,-0.7392,0.6985,0.4216,-6.6489,-5.2519,0.3282,69016
84,-0.7065,0.6953,0.4128,-3.6565,-1.1832,3.4275,69036
85,-0.7141,0.7117,0.4106,5.3435,6.855,6.1756,69056
86,-0.7451,0.709,0.4236,15.6107,12.2824,5.1832,69076
87,-0.7438,0.7363,0.4199,24.7481,16.2137,5.1603,69096
88,-0.7507,0.7839,0.3989,24.5038,22.0611,8.7786,69116
89,-0.7792,0.8179,0.385,10.8473,21.9466,10.5802,69136
90,-0.7936,0.8135,0.3818,-7.4733,14.5725,8.3511,69156
91,-0.8,0.7629,0.4312,-15.542,7.5344,3.855,69176
92,-0.787,0.6951,0.4282,-11.0763,2.4962,-2.5191,69196
93,-0.7997,0.7429,0.4031,2.1832,2.9618,-7.8397,69216
94,-0.8034,0.802,0.3975,-2.1832,1.9008,-6.8397,69236
95,-0.7993,0.8135,0.394,-15.4198,-1.3435,-6.2901,69256
96,-0.7819,0.7793,0.4004,-25.0229,-6.7405,-7.084,69276
97,-0.7783,0.7478,0.3684,-29.7099,-12.6031,-7.9618,69296
98,-0.7975,0.7361,0.3899,-34.0458,-18.7328,-11.229,69316
99,-0.769,0.717,0.4197,-39.3053,-22.4122,-16.4656,69336
100,-0.728,0.6902,0.4204,-38.9847,-20.0229,-15.0458,69356
101,-0.7082,0.6323,0.4529,-34.626,-11.9237,-8.9237,69376
102,-0.7228,0.584,0.478,-19.2824,-4.9389,-1.771,69396
103,-0.7309,0.605,0.4441,2.7634,1.5802,2.2824,69416
104,-0.7358,0.668,0.437,18.2901,8.5878,5.2366,69436
105,-0.769,0.6829,0.4539,25.9008,13.1527,5.6183,69456
106,-0.7856,0.6843,0.4634,31.2443,12.9618,4.6183,69476
107,-0.7724,0.6877,0.4622,31.5496,13.145,4.542,69496
108,-0.7685,0.7122,0.4407,27.9847,17.6031,5.313,69516
109,-0.8005,0.7432,0.4253,18.1298,18.2748,5.2214,69536
110,-0.8237,0.7507,0.4126,1.7939,11.2214,4.1298,69556
111,-0.798,0.74,0.3618,-6.6336,5.374,0.8244,69576
112,-0.7785,0.7361,0.3418,-7.0153,3.4122,-0.8092,69596
113,-0.7814,0.708,0.3762,-1.8473,-0.0916,-4.313,69616
114,-0.7661,0.7046,0.3933,8.3053,-4.5802,-6.5725,69636
115,-0.7465,0.7151,0.405,10.4427,-3.5191,-5.6718,69656
116,-0.7665,0.7397,0.4143,8.0076,-3.3664,-6.0458,69676
117,-0.7736,0.7661,0.4011,-5.5496,-6.084,-5.3435,69696
118,-0.778,0.7407,0.4016,-16.6412,-8.8626,-6.4275,69716
119,-0.7714,0.689,0.4043,-18.9618,-10.0076,-8.1908,69736
120,-0.7538,0.6533,0.3953,-9.9389,-7.6412,-8.6183,69756
121,-0.7446,0.6433,0.4072,0.9008,-1.9389,-4.313,69776
122,-0.7514,0.6428,0.4192,10.374,3.4427,1.5725,69796
123,-0.7648,0.6667,0.4023,17.1832,7.084,5.4504,69816
124,-0.7802,0.7053,0.385,21.7099,8.2748,7.1985,69836
125,-0.7849,0.7324,0.3923,24.855,8.542,6.771,69856
126,-0.7858,0.748,0.4077,25.4656,9.687,5.9924,69876
127,-0.7756,0.7529,0.3992,21.4886,11.2824,5.8702,69896
128,-0.7809,0.748,0.3967,12.9389,12.3282,6.9084,69916
129,-0.8019,0.7432,0.3994,2.5802,9.4809,7.0305,69936
130,-0.8,0.7371,0.4065,-5.8015,4.1985,6.4046,69956
131,-0.777,0.7307,0.3984,-7.2748,1.916,4.084,69976
132,-0.77,0.7063,0.3962,1.2824,0.7023,-1.2214,69996
133,-0.7846,0.7603,0.3733,10.8244,1.2137,-5.0229,70016
134,-0.7912,0.7942,0.3726,7.458,-0.0611,-6.3817,70036
135,-0.787,0.7886,0.3777,-4.9084,-4.1985,-6.916,70056
136,-0.7753,0.7808,0.3887,-17.7634,-10.3206,-6.1145,70076
137,-0.779,0.7505,0.4001,-27.9084,-14.3817,-7.1908,70096
138,-0.7665,0.7139,0.3989,-33.3817,-17.0763,-8.7176,70116
139,-0.7578,0.6562,0.4099,-32.0305,-16.1679,-10.4656,70136
140,-0.7507,0.6331,0.394,-20.0687,-11.2977,-9.7634,70156
141,-0.7438,0.6143,0.3738,-0.687,-4.2672,-5.7176,70176
142,-0.7294,0.6069,0.3816,24.1145,3.4962,1.2977,70196
143,-0.7346,0.6323,0.3699,48.5725,14.5725,6.4275,70216
144,-0.7692,0.7388,0.3774,58.9618,19.9008,10.3053,70236
145,-0.8071,0.8293,0.3862,45.6641,20.7557,11.4198,70256
146,-0.8198,0.8389,0.3816,19.6412,15.4504,7.3053,70276
147,-0.8144,0.811,0.4053,-6.5115,9.3588,3.2366,70296
148,-0.7924,0.7537,0.4265,-23.6183,3.3435,-0.374,70316
149,-0.7536,0.7305,0.3594,-25.0076,3.0992,-3.1603,70336
150,-0.77,0.7273,0.3489,-19.5191,6.4198,-2.3053,70356
151,-0.82,0.7261,0.3723,-10.5267,1.3435,-5.7099,70376
152,-0.8039,0.7791,0.3486,-7.1374,-5.4885,-8.7023,70396
153,-0.8029,0.7952,0.3562,-13.626,-7.9084,-10.5115,70416
154,-0.82,0.812,0.4243,-29.0229,-13.3511,-9.4122,70436
155,-0.778,0.7314,0.4475,-48.8321,-19.374,-13,70456
156,-0.736,0.6912,0.4146,-60.3435,-15.771,-13.0687,70476
157,-0.7636,0.6692,0.4158,-67.4122,-14.458,-10.6183,70496
158,-0.7543,0.6272,0.3943,-69.0305,-16.8779,-9.8015,70516
159,-0.7553,0.5918,0.417,-64.3053,-16.2366,-6.3435,70536
160,-0.7817,0.5781,0.4668,-55.2519,-14.0229,-4.1221,70556
161,-0.759,0.5745,0.4868,-42.3588,-11.4198,-2.9542,70576
162,-0.7451,0.5806,0.4761,-29.5573,-2.229,0.0534,70596
163,-0.7851,0.582,0.4687,-19.8473,4.7634,2.6412,70616
164,-0.8073,0.5771,0.4834,-15.6489,4.5496,4.5191,70636
165,-0.7819,0.5452,0.4756,-12.4809,2.229,3.855,70656
166,-0.7529,0.5483,0.469,-5.916,6.8015,5.2977,70676
167,-0.7709,0.5601,0.4897,-2.4656,7.7557,7.2061,70696
168,-0.7797,0.5764,0.4846,-0.8321,5.0611,5.2214,70716
169,-0.7751,0.5847,0.4446,1.1374,4.6565,2.5344,70736
170,-0.801,0.6191,0.4365,1.3511,4.2824,2.374,70756
171,-0.8171,0.5957,0.4924,0.8779,-3.8931,-1.7176,70776
172,-0.7778,0.5918,0.4668,3.6718,-9.7023,-2.9466,70796
173,-0.756,0.5891,0.4817,4,-12.0611,-1.6565,70816
174,-0.7529,0.6057,0.4812,0.4809,-14.8473,-0.0916,70836
175,-0.7304,0.6104,0.46,-1.3435,-12.4962,-0.2748,70856
0,-0.2184,-0.1929,0.9863,10.4656,-2.4504,-15.3969,72996
1,-0.0295,-0.0962,0.8445,3.1374,7.5496,-7.3511,73016
2,-0.0161,-0.085,0.8418,-4.3588,2.7328,-6.6183,73036
3,-0.0226,-0.0549,0.8359,-4.9237,0.5649,-1.2824,73056
4,-0.0136,-0.0479,0.8394,-5.1756,-0.5496,1.0763,73076
5,-0.0275,-0.092,0.874,-10.0076,-4.4046,-2.2901,73096
6,-0.0351,-0.1118,0.9255,-8.9008,-9.8015,4.5038,73116
7,-0.0058,-0.1624,0.9333,-13.5267,-14.9008,12.7023,73136
8,-0.0087,-0.291,0.9551,-15.7405,-27.6794,5.084,73156
9,0.0316,-0.0425,0.9756,-14.374,-11.0916,2.2595,73176
10,-0.029,0.2466,0.9329,-72.3893,-12.8855,52.5802,73196
11,-0.2043,-0.209,1.137,-134.5343,-14.084,25.6183,73216
12,0.015,-0.2139,0.9893,-163.9389,-7.8168,22.2519,73236
13,-0.0224,-0.4707,0.9114,-156.1832,29.1756,35.9618,73256
14,-0.0349,-0.4602,0.938,-150.7023,47.4427,39.9847,73276
15,-0.0861,-0.5271,0.967,-147.2977,58.5267,53.8015,73296
16,-0.0817,-0.6208,0.8733,-109.7405,59.4885,61.7023,73316
17,-0.091,-0.6018,0.8325,-80.6107,64.3893,65.5573,73336
18,-0.0744,-0.4856,0.6646,-83.7023,66.8779,85.3511,73356
19,-0.1655,-0.376,0.6238,-97.7939,68.8779,100.3435,73376
20,-0.1848,-0.4517,0.5581,-98.6183,60.2595,131.4046,73396
21,-0.1472,-0.5225,0.4297,-84.8626,63.5573,156.4733,73416
22,-0.2316,-0.4534,0.363,-80.8626,69.7557,161.4809,73436
23,-0.3415,-0.3796,0.3208,-95.1985,60.1527,167.0382,73456
24,-0.3815,-0.3867,0.2063,-113.5038,46.5878,171.1298,73476
25,-0.4308,-0.2896,0.1313,-127.1145,45.9618,177.8779,73496
26,-0.5527,-0.2471,0.1301,-132.5573,40.6718,177.7634,73516
27,-0.6335,-0.2798,0.0793,-139.4886,17.5725,168.4657,73536
28,-0.6428,-0.249,0.0466,-138.4657,-3.8168,167.1145,73556
29,-0.6447,-0.1855,0.0054,-119.1221,-15,162.3893,73576
30,-0.6508,-0.1021,-0.0042,-88.4504,-21.1832,159.6794,73596
31,-0.6628,-0.0466,-0.0293,-67.2061,-26.1298,153.771,73616
32,-0.7131,0.0247,-0.0225,-58.1985,-30.9237,154.0229,73636
33,-0.7177,0.095,-0.0408,-60.9313,-39.5802,142.5114,73656
34,-0.7558,0.1509,-0.0176,-72.9008,-47.3969,138.3664,73676
35,-0.7863,0.1074,0.0393,-75,-62.374,129.6031,73696
36,-0.758,0.1055,0.0369,-62.1908,-73.3817,120.1679,73716
37,-0.6931,0.2,-0.0071,-55.2366,-74.145,114.916,73736
38,-0.6904,0.2625,0.0527,-63.3893,-67.542,116.9389,73756
39,-0.7438,0.241,0.1362,-68.1145,-67.0382,110.2977,73776
40,-0.7538,0.2207,0.146,-55.6794,-73.4275,100.2519,73796
41,-0.7053,0.271,0.1836,-44.3511,-78.374,93.3435,73816
42,-0.6872,0.3762,0.2463,-50.6107,-75.6641,88.5038,73836
43,-0.717,0.418,0.283,-74.229,-72.3053,84.5496,73856
44,-0.7387,0.3547,0.312,-89.7481,-77.6565,71.2366,73876
45,-0.6931,0.2769,0.2891,-77.3588,-81.0229,55.0687,73896
46,-0.6357,0.2935,0.2983,-52.542,-70.6947,43.542,73916
47,-0.6406,0.3513,0.4038,-39.4962,-51.0687,38.0992,73936
48,-0.7089,0.4131,0.4465,-48.6794,-40.9466,35.374,73956
49,-0.7563,0.3823,0.4639,-58.2824,-44.8931,28.9237,73976
50,-0.728,0.3005,0.448,-48.8015,-48.8855,16.4198,73996
51,-0.6464,0.2292,0.3884,-16.7481,-33.6336,3.7099,74016
52,-0.6533,0.3962,0.5312,-3.916,-6,0.4733,74036
53,-0.7602,0.4639,0.5493,-22.8092,-0.3359,5.2519,74056
54,-0.829,0.4146,0.4568,-46.1374,-14.2901,5.5802,74076
55,-0.8051,0.3308,0.3586,-53.7939,-27.3588,3.3206,74096
56,-0.7975,0.2761,0.3333,-43.4122,-27.1832,-2.4427,74116
57,-0.8098,0.2578,0.3772,-29.0992,-23.5496,-10.6336,74136
58,-0.8017,0.3262,0.4172,-12.6336,-23.084,-13.2443,74156
59,-0.769,0.375,0.5068,-15.9389,-26,-8.5573,74176
60,-0.7248,0.3477,0.4705,-30.2595,-22.2443,-4.687,74196
61,-0.7341,0.3213,0.4558,-41.1374,-18.2519,0.5573,74216
62,-0.7495,0.2627,0.4187,-38.3435,-16.1985,-2.2748,74236
63,-0.7397,0.2458,0.386,-24.7176,-14.145,-5.7023,74256
64,-0.7241,0.2329,0.3862,-9.4504,-9.9084,-4.0458,74276
65,-0.7158,0.1936,0.4387,7.3893,-1.7557,-3.9924,74296
66,-0.7187,0.2161,0.4919,23.8779,3.4733,-1.8626,74316
67,-0.6909,0.2168,0.467,40.8092,8.8321,0,74336
68,-0.6818,0.2668,0.425,57.3359,19.9237,0.3282,74356
69,-0.7343,0.3003,0.4438,55.7481,27.4886,2.5191,74376
70,-0.8012,0.3345,0.509,42.5267,18.2748,2.7481,74396
71,-0.7929,0.3325,0.4604,32.7405,4.8321,0.5878,74416
72,-0.7392,0.3047,0.3845,37.2061,6.1832,-6.8015,74436
73,-0.7578,0.2969,0.3669,53.6183,16.2214,-7.3053,74456
74,-0.8054,0.3271,0.4524,56.771,15.687,0.3664,74476
75,-0.8193,0.364,0.4792,50.458,10.5267,5.6718,74496
76,-0.8093,0.3792,0.4834,44.1069,10.0458,7.4962,74516
77,-0.8386,0.4099,0.4741,40.4046,12.0458,8,74536
78,-0.8649,0.4387,0.469,32.374,7.2748,5.7176,74556
79,-0.8571,0.4363,0.5044,18.5344,-1.9771,1.2595,74576
80,-0.8227,0.4646,0.5081,4.1298,-7.9542,-6.6565,74596
81,-0.8095,0.5601,0.5269,-20.3359,-8.0611,-8.8321,74616
82,-0.8203,0.499,0.4951,-50.3664,-14.4962,-12.7099,74636
83,-0.8024,0.4033,0.4333,-62.3206,-20.5191,-16.2214,74656
84,-0.7883,0.3623,0.4207,-64,-22.7176,-15.5802,74676
85,-0.7851,0.3474,0.4167,-62.8092,-24.6718,-12.4504,74696
86,-0.7599,0.3301,0.4033,-57.6336,-24.6336,-10.2901,74716
87,-0.7346,0.3191,0.4321,-50.9618,-21.2748,-7.8321,74736
88,-0.7211,0.3259,0.4597,-50.5573,-19.1145,-6.3435,74756
89,-0.706,0.3083,0.4524,-55.6336,-19.3511,-5.2214,74776
90,-0.6923,0.252,0.4443,-54.1221,-19.1756,-6.084,74796
91,-0.6904,0.2219,0.4243,-49.6565,-16.1221,-5.084,74816
92,-0.707,0.1646,0.4417,-41.6031,-12.2824,-5.1527,74836
93,-0.705,0.103,0.4492,-23.5267,-7.2824,-3.4198,74856
94,-0.696,0.0747,0.4575,3.0687,1.4504,1.4656,74876
95,-0.7172,0.0747,0.4353,33.3817,11.4046,6.5038,74896
96,-0.7492,0.1318,0.4321,59.5038,20.9542,10.4962,74916
97,-0.7668,0.2375,0.489,69.2672,23.1145,14.6107,74936
98,-0.7702,0.3308,0.5417,54.084,19.4886,18.2824,74956
99,-0.7663,0.3135,0.5403,33.0153,14.6718,15.5878,74976
100,-0.7607,0.2656,0.4902,29.0763,13.9542,7.2366,74996
101,-0.7719,0.2688,0.4375,45.2748,18.626,2.9008,75016
102,-0.7914,0.2939,0.4529,59.6336,19.3969,7.1374,75036
103,-0.7836,0.29,0.4973,67.8779,17.5954,10.6489,75056
104,-0.7731,0.2825,0.4663,82.0916,19.4046,13.6336,75076
105,-0.7841,0.2991,0.4514,101.3664,25.1069,19.0611,75096
106,-0.8198,0.4287,0.4595,103.6412,27.4504,27.916,75116
107,-0.8488,0.4944,0.5269,79.9313,17.3053,29.5573,75136
108,-0.8066,0.48,0.4949,63.9771,10.9924,23.3817,75156
109,-0.8132,0.4797,0.4602,60.2061,14.0305,14.7023,75176
110,-0.8254,0.5759,0.4009,48.626,14.6489,13.9389,75196
111,-0.8686,0.6028,0.4321,20.3588,4.7481,16.9389,75216
112,-0.8371,0.5247,0.4436,-0.5191,-8.8321,13.7328,75236
113,-0.8039,0.4504,0.4385,-0.8321,-13.9008,10.6794,75256
114,-0.7966,0.4348,0.4258,11.3359,-15.4656,9.9618,75276
115,-0.7717,0.4727,0.4106,21.1298,-14.4198,11.6489,75296
116,-0.758,0.5186,0.4429,28.9084,-12.145,11.4198,75316
117,-0.7355,0.5659,0.4644,32.2595,-8.7099,9.8931,75336
118,-0.7228,0.5781,0.4612,26.3664,-5.2824,7.3893,75356
119,-0.7429,0.5593,0.4731,15.0611,-3.7176,3.4198,75376
120,-0.758,0.5674,0.4775,2.6107,-6.4122,-2.084,75396
121,-0.7529,0.5466,0.4592,-7.916,-8.9389,-5.5725,75416
122,-0.7543,0.5222,0.4075,-9.0076,-8.3817,-7.2901,75436
123,-0.7704,0.4841,0.4343,-5.313,-8.542,-8.1145,75456
124,-0.7695,0.4663,0.4526,5.8397,-7.2366,-8.0992,75476
125,-0.7499,0.4561,0.4622,19.7863,0.9618,-5.916,75496
126,-0.7607,0.4739,0.4714,46.9618,14.6565,-4.084,75516
127,-0.777,0.5295,0.4719,59.9237,22.916,3.626,75536
128,-0.8058,0.572,0.4624,52.687,25.3511,7.916,75556
129,-0.8251,0.5967,0.4595,38.3359,18.9084,7.3664,75576
130,-0.8149,0.5752,0.4495,28.1221,12.1069,2.0382,75596
131,-0.7726,0.5937,0.429,27.0916,12.458,-2.6031,75616
132,-0.7936,0.5991,0.3967,23.1603,13.9695,-2.3359,75636
133,-0.8068,0.5969,0.416,16.4504,11.0458,-2.8321,75656
134,-0.8019,0.606,0.448,6.7634,8.4656,-3.5115,75676
135,-0.8217,0.5957,0.4321,-1.1527,7.0153,-4.313,75696
136,-0.8325,0.5913,0.4207,-6.5802,5.9008,-4.1908,75716
137,-0.862,0.5742,0.4062,-11.1221,0.7405,-3.8092,75736
138,-0.8474,0.5591,0.4067,-17.145,-7.3588,-1.9313,75756
139,-0.8239,0.5464,0.4375,-19.2443,-9.4427,-1.7023,75776
140,-0.8278,0.5452,0.4546,-20.2214,-11.9618,-1.0229,75796
141,-0.8122,0.5513,0.4687,-18.0458,-15.7252,-2.5649,75816
142,-0.7822,0.5657,0.4529,-17.4656,-14.084,-3.084,75836
143,-0.8005,0.606,0.4392,-24.687,-14.7252,-3,75856
144,-0.7949,0.5867,0.468,-38.9695,-20.5344,-4.626,75876
145,-0.7658,0.511,0.459,-43.7786,-21.4504,-8.916,75896
146,-0.7331,0.4797,0.4734,-37.9008,-17.9542,-12.084,75916
147,-0.7155,0.4788,0.4399,-31.5114,-10.0382,-10.0534,75936
148,-0.7255,0.4751,0.4514,-28.084,-5.9008,-4.3282,75956
149,-0.7319,0.4321,0.4216,-19.9847,-1.1374,-1.4885,75976
150,-0.7497,0.4124,0.4263,-2.7405,7.6641,-0.6107,75996
151,-0.7783,0.4114,0.4492,17.9771,13.5191,1.2443,76016
152,-0.7956,0.4556,0.4551,32.3664,16.1221,3.6412,76036
153,-0.7966,0.5061,0.4641,37.6794,18.9008,7.2519,76056
154,-0.7844,0.5349,0.4756,33.5725,21.2595,8.7786,76076
155,-0.7831,0.4949,0.5093,28.4809,17.2824,3.3435,76096
156,-0.7731,0.5046,0.458,28.229,12.7023,-3.4122,76116
157,-0.789,0.502,0.4399,25.3359,10.9542,-2.2824,76136
158,-0.8022,0.5261,0.4304,20.0458,7.0305,1.2366,76156
159,-0.8032,0.5791,0.4297,10.5954,5.4733,4.1985,76176
160,-0.8181,0.5483,0.4202,4.9847,4.0687,2.1221,76196
161,-0.8266,0.5598,0.427,4.2977,1.6336,0.0763,76216
162,-0.832,0.5708,0.429,1.2366,0.9847,-1.6641,76236
163,-0.8447,0.5862,0.4417,-2.5496,-1.1069,-2.3435,76256
164,-0.8251,0.5796,0.4668,-14.4351,-3.7099,-1.8015,76276
165,-0.82,0.5339,0.489,-21.1527,-8.2672,-4.1756,76296
166,-0.8019,0.5327,0.4695,-24.0382,-13.7405,-5.7634,76316
167,-0.7814,0.552,0.4089,-25.4962,-16.1527,-3.1221,76336
168,-0.7939,0.5413,0.3979,-26.0153,-14.5725,-0.7939,76356
169,-0.8061,0.5173,0.4573,-28.2214,-17.5878,-3.3893,76376
170,-0.778,0.5054,0.5046,-31.2824,-19.3511,-5.2748,76396
171,-0.7343,0.5049,0.4919,-37.5802,-15.6107,-3.3969,76416
172,-0.7399,0.4729,0.4719,-37.145,-7.8779,-1.4198,76436
173,-0.7614,0.4678,0.4336,-28.9313,-3.1221,0.9847,76456
174,-0.7807,0.457,0.4397,-19.4351,-1.7328,0.0382,76476
175,-0.7707,0.4429,0.4429,-12.1145,-3.458,-0.5954,76496
0,0.0418,-0.1487,0.7952,-7.1832,3.4733,1.771,78796
1,0.0582,-0.1685,0.7454,-3.0611,6.5344,0.8397,78816
2,0.0313,-0.1724,0.7874,-1.7863,5.0458,-3.4504,78836
3,0.0318,-0.1265,0.7893,-3.5496,4.7328,-2.4427,78856
4,0.0362,-0.1472,0.7854,-4.5573,5.0992,1.229,78876
5,0.0421,-0.1885,0.8296,-5.0763,4.8702,2.4198,78896
6,0.024,-0.2097,0.8308,-4.4122,-2.5802,-3.8931,78916
7,0.0184,-0.2119,0.8518,-4.8244,-10.7405,-11.7481,78936
8,0.2171,-0.1975,0.6841,1.6794,-16.5191,-18.7863,78956
9,0.118,-0.1775,0.7722,-3.8015,-5.3435,-16.1603,78976
10,0.0201,-0.1428,0.8528,-6.7634,-4.9237,-16.3511,78996
11,0.0176,-0.0483,0.9451,-9.5573,10.3893,6.9542,79016
12,-0.0178,-0.1069,0.99,-47.0763,-4.4046,11.542,79036
13,0.0772,-0.168,0.8267,-68.4885,3.2366,17.3664,79056
14,0.0965,-0.1943,0.803,-79.7863,16.6489,20.2519,79076
15,0.0657,-0.2261,0.9146,-102.7557,19.2214,29.9008,79096
16,0.0506,-0.3865,0.9155,-115.0611,21.4656,32.5038,79116
17,0.0818,-0.5254,0.8621,-104.9389,30.3053,39.5191,79136
18,0.0113,-0.4453,0.8093,-95.1298,53.1298,53.6183,79156
19,-0.1091,-0.4861,0.8684,-94.3817,59.8702,67.0458,79176
20,-0.0927,-0.5371,0.8218,-109.2366,58.6107,82.7939,79196
21,-0.1078,-0.5251,0.6665,-129.0992,71.5954,102.1908,79216
22,-0.2155,-0.5413,0.6069,-143.458,75.8092,116.9389,79236
23,-0.2543,-0.6077,0.5,-145.9008,70.626,131.0687,79256
24,-0.2963,-0.604,0.4268,-138.2061,66.0687,144.8168,79276
25,-0.322,-0.5901,0.3479,-134.5114,55.8321,161.9847,79296
26,-0.3493,-0.5151,0.2361,-127.0458,52.6336,178.0763,79316
27,-0.4357,-0.4297,0.1985,-122.4198,46.4275,189.1832,79336
28,-0.4692,-0.4072,0.1265,-123,29.0534,194.8779,79356
29,-0.4724,-0.3542,0.0537,-118.1679,15.3511,195.1221,79376
30,-0.5175,-0.271,0.0327,-107.9771,4.7405,188.229,79396
31,-0.5632,-0.2153,0.0369,-96.1679,-12.3511,172.6947,79416
32,-0.5876,-0.1477,0.0242,-85.4351,-30.1374,158.084,79436
33,-0.612,-0.0798,0.0151,-75.7328,-41.5496,149.4046,79456
34,-0.6464,-0.0044,0.0273,-61.3359,-43.8168,142.3588,79476
35,-0.696,0.0059,0.0256,-42.229,-50.4962,141.2061,79496
36,-0.6889,0.0059,0.0181,-25.374,-56.0305,145.1145,79516
37,-0.6721,0.0784,0.0237,-9.458,-48.2519,146.084,79536
38,-0.7043,0.1467,0.0159,-0.5115,-36.7099,143.9847,79556
39,-0.759,0.1909,0.0791,-13.5115,-41.1145,136.626,79576
40,-0.7905,0.2322,0.0833,-29.5725,-51.3664,129.229,79596
41,-0.768,0.2393,0.0742,-38.5267,-60.0458,120.8702,79616
42,-0.7394,0.2473,0.0989,-45.0534,-61.4885,108.5802,79636
43,-0.7482,0.26,0.1484,-48.9313,-65.0229,97.9847,79656
44,-0.7463,0.2793,0.1917,-49.687,-72.4351,88.084,79676
45,-0.7245,0.271,0.1953,-43.9237,-78.9313,83.5573,79696
46,-0.7084,0.2891,0.2412,-30.9313,-77.9695,80.3969,79716
47,-0.6987,0.3511,0.281,-16.6183,-72.7939,77.9542,79736
48,-0.6955,0.3823,0.3132,-8.5954,-64.6565,74.7099,79756
49,-0.7006,0.3682,0.3411,0.084,-57.1908,69.0687,79776
50,-0.6877,0.385,0.3584,11.4656,-50.2061,63.8015,79796
51,-0.6933,0.4812,0.3977,17.0153,-40.5573,58.8626,79816
52,-0.7314,0.5493,0.4202,7.8397,-36.916,52.9771,79836
53,-0.7111,0.4133,0.3972,10.8244,-39.6336,37.9618,79856
54,-0.6672,0.6355,0.54,26.2443,-15.3511,30.8397,79876
55,-0.7219,0.6001,0.5295,10.0763,-5.5573,27.9618,79896
56,-0.7917,0.501,0.4114,7.3511,-8.0534,17.6489,79916
57,-0.8176,0.5286,0.4155,9.9695,-14.2519,13.6489,79936
58,-0.8061,0.5222,0.4136,6.626,-21.2748,8.0382,79956
59,-0.8061,0.51,0.4277,10.4427,-22.8626,5.1145,79976
60,-0.7807,0.5266,0.4595,14.7328,-19.7328,5.6412,79996
61,-0.7543,0.5405,0.4658,13.0229,-13.8702,8.7328,80016
62,-0.7712,0.5295,0.4373,9.7328,-11.3817,11.1527,80036
63,-0.7844,0.5271,0.4219,10.9847,-11.8779,10.9389,80056
64,-0.7717,0.5461,0.4194,15.5878,-11.2901,8.1298,80076
65,-0.7487,0.5789,0.3953,17.8626,-9.0153,7.5267,80096
66,-0.7372,0.5764,0.4285,20.374,-4.9466,6.3282,80116
67,-0.7087,0.5146,0.4407,29.4656,-0.3282,3.0305,80136
68,-0.6657,0.4917,0.4377,51.4122,8.9618,0.0687,80156
69,-0.6752,0.5649,0.4268,66.3969,21.2061,2.4351,80176
70,-0.7399,0.6082,0.407,59.5954,25.0153,8.1221,80196
71,-0.7912,0.6089,0.4336,46.5191,18.5267,7.7252,80216
72,-0.7817,0.6111,0.4175,38.9847,14,5.687,80236
73,-0.7617,0.6187,0.3887,40.2214,18.1374,4.626,80256
74,-0.8085,0.6179,0.3982,43.1603,20.7176,6.0992,80276
75,-0.8417,0.6426,0.3977,41.2595,14.0534,7.4122,80296
76,-0.8295,0.6592,0.4053,31.0534,8.5802,9.1069,80316
77,-0.8232,0.6514,0.4148,22.5344,7.7328,11.0763,80336
78,-0.8369,0.6101,0.4053,23.687,7.0916,13.4198,80356
79,-0.8281,0.6311,0.3828,32.7786,8.3359,14.8092,80376
80,-0.8283,0.677,0.3813,36.542,10.5954,16.9771,80396
81,-0.8383,0.7029,0.3657,29.5954,7.0458,17.9847,80416
82,-0.8359,0.7244,0.3643,20.7634,4.9924,16.5725,80436
83,-0.8273,0.6863,0.3921,18.2748,-1.626,9.2748,80456
84,-0.8132,0.698,0.3708,27.9771,-1.1603,-0.0534,80476
85,-0.819,0.7837,0.3489,30.9695,-1.0611,-1.8321,80496
86,-0.8105,0.7976,0.3857,14.626,-3.6718,-3.2977,80516
87,-0.7941,0.7317,0.3774,-1.084,-8.145,-6.7252,80536
88,-0.7797,0.678,0.3582,-7.6412,-10.2519,-7.084,80556
89,-0.7707,0.6636,0.3655,-8.145,-13.0687,-6.2443,80576
90,-0.77,0.6887,0.3389,-3.4275,-13.374,-4.1679,80596
91,-0.7768,0.6575,0.3196,-0.4198,-10.855,-3.1908,80616
92,-0.7951,0.6892,0.3381,10.6794,-9.771,-4.3511,80636
93,-0.7651,0.698,0.3843,13.3435,-9.2824,-5.458,80656
94,-0.7441,0.6902,0.386,13.7328,-3.4427,-5,80676
95,-0.7402,0.6985,0.3975,11.7099,3.145,-2.8702,80696
96,-0.758,0.6929,0.3914,4.1679,6.4809,-1.626,80716
97,-0.788,0.678,0.396,-1.6107,6.5878,-0.458,80736
98,-0.7956,0.6558,0.396,4.1908,6.5878,-0.3893,80756
99,-0.7773,0.6641,0.3613,16.7023,10.4809,0.2061,80776
100,-0.7966,0.7075,0.3381,22.3588,15.3969,3.8702,80796
101,-0.8347,0.7454,0.3467,16.3588,13.8473,8.145,80816
102,-0.8456,0.7295,0.363,7.8473,7.9542,7.7786,80836
103,-0.812,0.7065,0.353,2.1527,5.0534,6.5573,80856
104,-0.8137,0.7227,0.3538,1.1985,8.1069,5.5649,80876
105,-0.8171,0.7688,0.3735,-3.2977,5.9313,4.4962,80896
106,-0.8173,0.781,0.3704,-19.4275,0.4656,5.5038,80916
107,-0.8222,0.7214,0.3774,-32.2443,-6.0534,0.2366,80936
108,-0.8256,0.72,0.3557,-33.4885,-6.9008,-7.1985,80956
109,-0.8134,0.6812,0.3628,-30.7863,-6.145,-10.084,80976
110,-0.7934,0.6641,0.334,-19.0534,-4.687,-8.8855,80996
111,-0.8005,0.6641,0.3301,-10.4427,-5.5038,-4.2977,81016
112,-0.7934,0.6597,0.3376,-2.4809,-7.6107,-0.9313,81036
113,-0.7936,0.6318,0.366,9.1527,-5.1298,1.6031,81056
114,-0.7807,0.636,0.3743,22.6489,-4.0687,1.1145,81076
115,-0.7822,0.6824,0.3875,30.2443,-0.8244,3.1908,81096
116,-0.8024,0.7117,0.3967,22.5344,-4.2366,3.9847,81116
117,-0.7773,0.7397,0.3716,18.313,-4.1908,0.3053,81136
118,-0.7836,0.7212,0.395,15.5496,-0.229,-2.7176,81156
119,-0.7822,0.6968,0.4045,19.2214,-0.0992,-5.8702,81176
120,-0.7433,0.6682,0.3723,24.8092,2.7863,-5.9771,81196
121,-0.7355,0.6682,0.3564,29.2366,9.5344,-1.3053,81216
122,-0.7636,0.6804,0.3457,29.7557,13.1679,3.2214,81236
123,-0.7914,0.7209,0.3525,28.2214,12.5725,7.3664,81256
124,-0.8088,0.7402,0.3396,24.6641,10.0382,8.0687,81276
125,-0.8256,0.7515,0.3296,20.3206,8.3969,7.9695,81296
126,-0.8283,0.7947,0.3296,13,5.2672,7.855,81316
127,-0.8354,0.7825,0.3455,1.374,2.9924,8.2214,81336
128,-0.8251,0.7295,0.3552,-6.3969,0.4504,8.3664,81356
129,-0.799,0.6943,0.3462,-6.0916,1.3435,8.9313,81376
130,-0.8046,0.7095,0.3411,-1.2061,5.8168,9.9695,81396
131,-0.819,0.752,0.3262,4.3817,5.6107,10.7939,81416
132,-0.8073,0.7595,0.3333,6.3359,3.4427,9.6107,81436
133,-0.8046,0.7712,0.3269,7.458,3.0916,7.3435,81456
134,-0.7932,0.7439,0.3506,8.9847,-1.2061,0.8321,81476
135,-0.7702,0.7671,0.3374,11.1679,-1.4046,-4.8931,81496
136,-0.7712,0.7317,0.3311,10.6947,-0.916,-9.7863,81516
137,-0.7844,0.7715,0.335,9.4046,-2.6183,-12.0229,81536
138,-0.7797,0.7886,0.3301,0.0611,-2.7634,-10.626,81556
139,-0.7763,0.7495,0.3181,-6.374,-5.2672,-12.374,81576
140,-0.7763,0.7463,0.3223,-9.6031,-7.7252,-10.6489,81596
141,-0.8071,0.7485,0.332,-10.084,-9.1603,-11.1298,81616
142,-0.7966,0.7512,0.3469,-11.8626,-12.3053,-10.8931,81636
143,-0.747,0.7097,0.3499,-13.6718,-4.7481,-6.3511,81656
144,-0.7543,0.6714,0.3469,-6.4885,7.4046,0.6565,81676
145,-0.7961,0.6687,0.3401,2.5267,12.6565,5.7023,81696
146,-0.8112,0.7285,0.3145,5.8397,10.9389,10.0916,81716
147,-0.8146,0.7678,0.3198,2.5954,8.9313,12.9695,81736
148,-0.8403,0.7324,0.3511,0.1298,3.374,10.2824,81756
149,-0.8027,0.7478,0.3721,2.4351,0.0229,8.3359,81776
150,-0.769,0.7339,0.3577,1.0076,4.7634,9.4733,81796
151,-0.7836,0.6804,0.3784,0.7786,7.5573,7.9084,81816
152,-0.7939,0.6858,0.3542,5.8015,6.5191,4.5267,81836
153,-0.7934,0.75,0.3347,5.626,6.3817,4.1679,81856
154,-0.8232,0.7737,0.3137,4.9847,3.626,3.1756,81876
155,-0.8107,0.7856,0.3044,4.4733,0.313,1.4504,81896
156,-0.7995,0.7634,0.3062,2.3664,0.4656,-2.1069,81916
157,-0.8117,0.749,0.3323,2.3969,-0.6489,-5.8244,81936
158,-0.8141,0.7358,0.3325,5.8244,-1.4198,-10.5191,81956
159,-0.8132,0.7644,0.3333,6.145,-0.6489,-10.7786,81976
160,-0.8337,0.7756,0.3262,4.5573,-2.5878,-10.8855,81996
161,-0.8312,0.7886,0.3247,-1.4885,-7.2672,-9.4122,82016
162,-0.8002,0.74,0.3413,-9.4198,-9.6947,-7.8397,82036
163,-0.7883,0.6721,0.3521,-8.7099,-7,-7.0382,82056
164,-0.7902,0.7405,0.3176,-1.5725,-6.3053,-4.8168,82076
165,-0.7946,0.7661,0.3362,-3.5573,-5.1756,-3.1679,82096
166,-0.7934,0.7092,0.3335,-4.9466,-5.542,-4.5802,82116
167,-0.7892,0.7385,0.3394,-4.0611,-3.9771,-4.2672,82136
168,-0.7929,0.7258,0.373,-10.4046,-1.2214,-2.0763,82156
169,-0.7592,0.6572,0.3779,-10.2595,0.5115,1.4122,82176
170,-0.7497,0.6765,0.3218,-2.542,7.5573,5.458,82196
171,-0.8036,0.7214,0.3435,0.855,7.4122,7.6489,82216
172,-0.8019,0.7183,0.3428,3.0534,1.374,6.0382,82236
173,-0.7795,0.717,0.3352,5.7099,1.7939,4.1679,82256
174,-0.8036,0.7515,0.345,3.3359,3.1145,5.2519,82276
175,-0.8141,0.7253,0.3423,-1.7863,0.4427,4.9618,82296
0,0.1553,-0.1118,0.7246,8.7176,10.3282,-7.1145,86536
1,0.1094,-0.198,0.7307,9.2748,8.771,-1.1985,86556
2,0.1026,-0.2034,0.7664,2.5267,2.3359,-0.6641,86576
3,0.1043,-0.2078,0.7595,-3.8397,-2.2901,0.2901,86596
4,0.1006,-0.2302,0.75,-5.7863,-4.4809,1.7099,86616
5,0.0965,-0.2195,0.7344,-1.771,-4.3053,1.0229,86636
6,0.1014,-0.2078,0.7327,-0.4122,-6.855,6.7328,86656
7,-0.0683,-0.3445,0.7473,2.6489,-1.5191,9.7328,86676
8,0.1309,-0.2947,0.8142,1.2061,-13.9924,-0.3206,86696
9,0.1324,-0.2859,0.8645,-0.7405,-20.8931,-5.6947,86716
10,0.1126,-0.2063,0.7913,23.1527,-3.0687,-9.9618,86736
11,0.0662,-0.095,0.8142,21.0534,-9.0763,21.0763,86756
12,0.1229,-0.1431,0.7854,-11.6107,2.4427,39.0687,86776
13,0.1473,-0.3706,0.8152,-24.1832,-4.6641,25.1221,86796
14,0.1461,-0.0371,0.8762,-49.7634,7.916,6.687,86816
15,0.0316,-0.1555,0.822,-107.374,-10,15.3969,86836
16,0.2374,-0.3081,0.6956,-114.4733,7.0611,28.855,86856
17,0.18,-0.5544,0.7795,-88.8015,30.0076,29.6794,86876
18,0.1465,-0.4585,0.7954,-48.1527,50.7634,43.2901,86896
19,0.0152,-0.3501,0.8162,-74.0687,42.8092,47.5802,86916
20,0.0384,-0.3862,0.6721,-95.9008,47.7176,64.5115,86936
21,-0.0502,-0.6372,0.7339,-85.9847,46.3969,65.1527,86956
22,0.0565,-0.675,0.6401,-54.3511,54.7328,73.0992,86976
23,-0.0541,-0.5637,0.6631,-34.145,65.8702,88.0992,86996
24,-0.1183,-0.4653,0.594,-47.3053,66.8092,108.3817,87016
25,-0.1674,-0.5037,0.5398,-66.6183,63.4809,120.2977,87036
26,-0.226,-0.5159,0.5054,-74.6031,57.9466,124.0611,87056
27,-0.2548,-0.4805,0.4368,-80.1756,49.5878,129.5573,87076
28,-0.3068,-0.459,0.4395,-85.9618,40.8321,135.2366,87096
29,-0.3459,-0.5298,0.3801,-68.6718,30.1374,135.5649,87116
30,-0.2995,-0.5076,0.2783,-21.0687,34.9237,139.0229,87136
31,-0.2504,-0.1604,0.0967,-5.4351,71.0763,145.5573,87156
32,-0.2875,-0.2817,0.1829,8.8244,58.1221,147.1756,87176
33,-0.4538,-0.0491,0.2505,-39.0382,58.7405,161.2977,87196
34,-0.5866,-0.1099,0.2722,-75.1069,40.0687,165.2061,87216
35,-0.6262,-0.167,0.2625,-91.5802,11.7023,159.771,87236
36,-0.5666,-0.1917,0.2273,-89.9466,-10.2366,151.2519,87256
37,-0.4975,-0.1345,0.1182,-85.0305,-2.5649,149.8168,87276
38,-0.5671,-0.1357,0.1309,-76.6031,17.3435,146.4198,87296
39,-0.675,-0.1108,0.2068,-64.9008,16.2137,141.7252,87316
40,-0.7477,-0.1116,0.2073,-44.1908,6.5878,137.2366,87336
41,-0.77,-0.082,0.1624,-12.2443,-6.8626,132.5191,87356
42,-0.7187,0.0303,0.1223,12.6641,-9.4198,130.6412,87376
43,-0.7075,0.0762,0.1404,25.0382,-2.145,125.1374,87396
44,-0.7495,0.0852,0.1462,32.1832,-3.6718,118.8168,87416
45,-0.777,0.1582,0.1387,30.8015,-9.8397,120.0916,87436
46,-0.8029,0.1953,0.1797,22.8092,-19.8168,119.6565,87456
47,-0.799,0.1917,0.1794,20.5954,-34.626,113.7786,87476
48,-0.7595,0.2148,0.1616,25.3511,-39.4046,108.6641,87496
49,-0.7541,0.2751,0.2048,30.9847,-37.8473,105.3969,87516
50,-0.7582,0.3274,0.1982,33.5878,-41.3893,102.0687,87536
51,-0.7531,0.396,0.1772,32.7939,-42.4427,99.3969,87556
52,-0.7729,0.4575,0.2395,31.4046,-42.2672,93.9313,87576
53,-0.7722,0.4978,0.2673,30.9389,-49.1756,88.3893,87596
54,-0.7109,0.5476,0.2427,30.4962,-49.5802,85.542,87616
55,-0.7075,0.5945,0.2827,32.7176,-40.6412,82.5878,87636
56,-0.7228,0.6267,0.3293,34.3817,-38.9313,75.6641,87656
57,-0.7111,0.675,0.3081,35.7634,-37.5267,67.5649,87676
58,-0.7036,0.7266,0.3271,36.2519,-36.1756,58.6718,87696
59,-0.7016,0.7385,0.3535,32.9695,-34.8168,49.2901,87716
60,-0.6933,0.7329,0.3503,28.1603,-31.8931,42.6794,87736
61,-0.6904,0.7229,0.3584,21.8244,-26.458,37.0382,87756
62,-0.7226,0.7156,0.4338,16.7863,-24.6031,29.4198,87776
63,-0.7275,0.7573,0.436,8.0611,-24.3282,21.2672,87796
64,-0.7277,0.7822,0.4197,-5.1298,-20.5725,18.313,87816
65,-0.7499,0.7383,0.4204,-10.855,-16.1221,14.6641,87836
66,-0.7658,0.6743,0.5027,-0.9847,-11.5267,7.3893,87856
67,-0.7465,0.6904,0.4976,6.5267,-4.7634,4.1985,87876
68,-0.7531,0.697,0.4719,5.2061,1.1527,7.3511,87896
69,-0.7814,0.7161,0.4136,5.8321,3.1221,9.1985,87916
70,-0.8019,0.7427,0.4167,7.4198,-0.6794,5.687,87936
71,-0.7795,0.7317,0.4236,7.2672,-8.2672,-0.5344,87956
72,-0.7289,0.7139,0.4165,7.7557,-11.2443,-2.7252,87976
73,-0.6901,0.6873,0.4204,4.7939,-7.4885,-1.1069,87996
74,-0.6799,0.6924,0.4238,0.7634,-3.1069,2.7405,88016
75,-0.6784,0.6768,0.4043,-1.7405,1.5267,3.2214,88036
76,-0.6806,0.7317,0.373,-4.3969,5.6565,5.313,88056
77,-0.7162,0.6951,0.4326,-4.1679,7.7252,5.5344,88076
78,-0.7241,0.6687,0.4531,6.5573,7.3359,5.1069,88096
79,-0.7453,0.7224,0.4521,14.2214,9.313,9.5115,88116
80,-0.7602,0.7349,0.4514,9.0382,12.771,14.5191,88136
81,-0.7763,0.7405,0.4363,1.1527,14.5191,14.0763,88156
82,-0.7814,0.7175,0.4429,-2.6718,14.0916,11.6489,88176
83,-0.7807,0.7153,0.4495,-2.2137,12.1527,10.7557,88196
84,-0.7719,0.7327,0.4292,0.9847,11.626,8.626,88216
85,-0.768,0.7468,0.4045,4.7023,11.9695,5.458,88236
86,-0.7836,0.7722,0.3977,4.9008,10.8397,2.1985,88256
87,-0.7863,0.7554,0.3948,2.8397,9.1145,-0.0076,88276
88,-0.7685,0.7295,0.396,3.3588,8.771,-1.1527,88296
89,-0.7639,0.7168,0.4111,6.4427,8.3893,-5.5038,88316
90,-0.7975,0.7375,0.4033,11.8626,8.4122,-13.8244,88336
91,-0.8049,0.7561,0.3633,13.7405,5.0916,-18.3282,88356
92,-0.7983,0.7715,0.3733,11.5115,3.0153,-19.2214,88376
93,-0.8002,0.7644,0.3879,6.0534,3.7176,-19.5191,88396
94,-0.7941,0.7402,0.3867,0.6641,1.4656,-20.7099,88416
95,-0.8127,0.7666,0.3706,-4.1908,-1.0153,-19.4656,88436
96,-0.8381,0.7678,0.4104,-16.6107,-10.5725,-15.2977,88456
97,-0.7966,0.6846,0.4004,-27.8626,-18.6565,-10.458,88476
98,-0.7536,0.6313,0.3718,-23.084,-15.7557,-4.0992,88496
99,-0.7507,0.614,0.3523,-13.0687,-7.6183,2.3817,88516
100,-0.7595,0.6143,0.3984,-4.8244,-4.2748,7.9313,88536
101,-0.7458,0.6628,0.4104,3.771,-1.6183,10.855,88556
102,-0.7211,0.6929,0.4355,10.7176,-0.1679,13.0992,88576
103,-0.6987,0.7002,0.4468,23.3282,4.4656,13.0916,88596
104,-0.6855,0.7156,0.438,35.0458,11.6183,11.3206,88616
105,-0.7307,0.6992,0.4226,30.6565,16.2748,9.3282,88636
106,-0.8183,0.738,0.4282,11.0229,9.7786,11.0153,88656
107,-0.8442,0.6973,0.416,-5.5038,-2.0305,6.1756,88676
108,-0.808,0.6841,0.4023,-1.8244,-4.8092,1.3817,88696
109,-0.777,0.7249,0.4163,6.5878,0.2901,1.2443,88716
110,-0.7866,0.7429,0.3977,6.6336,5.4656,3.4656,88736
111,-0.8078,0.7456,0.3799,2.0687,5.3282,4.8168,88756
112,-0.8044,0.7402,0.3647,0.3969,2.313,3.0458,88776
113,-0.8076,0.7537,0.3782,0.0382,-0.5267,0.3359,88796
114,-0.7961,0.7324,0.3899,3.5802,-0.6794,-1.5725,88816
115,-0.8056,0.7036,0.4146,10,-1.2595,-1.8092,88836
116,-0.7766,0.7107,0.3416,16.0916,-3.9771,-6.8092,88856
117,-0.7685,0.7654,0.366,6.7557,-1.9008,-11.3817,88876
118,-0.7892,0.7771,0.3486,-2.6641,-0.084,-15.9084,88896
119,-0.8156,0.7627,0.4023,-5.8397,-2.8473,-14.9313,88916
120,-0.789,0.7195,0.4199,-5.1069,-5.7863,-8.916,88936
121,-0.7377,0.6736,0.397,0.5802,-2.5802,-1.626,88956
122,-0.7326,0.6853,0.3782,8.5573,4.9084,1.3435,88976
123,-0.7609,0.7446,0.377,8.9695,8.3053,0.5725,88996
124,-0.779,0.7544,0.3679,3.3282,6.6336,-3.4656,89016
125,-0.7961,0.7495,0.3452,1.1145,2.5878,-9.458,89036
126,-0.8039,0.7854,0.3923,-1.4427,-2.0916,-13.0458,89056
127,-0.7629,0.7095,0.4255,-8.9237,-7.687,-14.3893,89076
128,-0.7304,0.6763,0.4036,-13.7405,-2.1298,-10.6183,89096
129,-0.7736,0.7263,0.384,-22.1145,4.3664,-4.7023,89116
130,-0.8325,0.7314,0.3979,-31.0534,-2.0305,-4.8168,89136
131,-0.791,0.6775,0.4241,-28.4275,-7.6412,-6.855,89156
132,-0.7285,0.6409,0.4065,-15.1298,-2.1527,-1.5573,89176
133,-0.7202,0.6199,0.416,-3.6412,7.5725,3.542,89196
134,-0.7436,0.6372,0.3867,3.5878,13.6183,5.9771,89216
135,-0.7797,0.6941,0.3894,6.5725,16.3511,8.084,89236
136,-0.7958,0.6948,0.3904,9.916,14.6183,8.3435,89256
137,-0.7993,0.676,0.4009,16.0534,10.6947,9.7634,89276
138,-0.8105,0.7319,0.3918,16.7863,7.3053,10.2672,89296
139,-0.7985,0.7356,0.4409,1.4275,3.7863,7.6412,89316
140,-0.7868,0.7058,0.3882,-9.313,3.4122,5.4427,89336
141,-0.7958,0.6943,0.3594,-8.1679,6.0382,5.7939,89356
142,-0.8117,0.6975,0.3665,-6.1527,5.2672,8.2137,89376
143,-0.8083,0.6755,0.374,-1.4656,3.3511,8.9618,89396
144,-0.7883,0.6692,0.3967,2.8397,2.1527,9.4122,89416
145,-0.7785,0.6914,0.3696,5.8779,5.1145,11.6565,89436
146,-0.7888,0.7075,0.3711,8.5344,6.8931,16.6336,89456
147,-0.7993,0.7134,0.3877,10.7252,5.855,16.2748,89476
148,-0.7839,0.7139,0.373,14.2901,4.4351,15.3359,89496
149,-0.7883,0.7822,0.3604,12.9618,6.2519,16.7328,89516
150,-0.8034,0.7661,0.3721,-2.2214,4.542,19.2977,89536
151,-0.801,0.7026,0.3589,-7.9389,-2.4504,16.7099,89556
152,-0.7822,0.7163,0.3359,2.229,-3.1908,12.2824,89576
153,-0.7883,0.8047,0.3684,14.0611,-1.6107,6.1145,89596
154,-0.7939,0.835,0.3911,13.2595,-5.1603,-0.7939,89616
155,-0.7648,0.8149,0.3853,5.458,-5.542,-7.9008,89636
156,-0.7509,0.7527,0.3618,-1.9771,-3.7023,-14.2748,89656
157,-0.7599,0.72,0.3496,-3.3206,-0.3359,-15.7634,89676
158,-0.7707,0.699,0.3447,-0.916,1.6947,-16.2977,89696
159,-0.7775,0.7085,0.3513,2.8626,1.6565,-15.0687,89716
160,-0.7831,0.7222,0.3635,2.5496,0.7099,-14.4504,89736
161,-0.7922,0.8069,0.3584,-2.5573,-1.1145,-9.5267,89756
162,-0.8017,0.8108,0.3811,-20.9237,-6.3893,-4.7634,89776
163,-0.7797,0.7651,0.3789,-36.374,-10.855,-3.7252,89796
164,-0.767,0.7161,0.4014,-38.0992,-8.0992,-1.0153,89816
165,-0.759,0.6526,0.3965,-32.3053,-4.4427,-1.5115,89836
166,-0.7599,0.6538,0.3708,-16.6718,0.1832,-1.6641,89856
167,-0.7773,0.6846,0.3765,-3.1679,2.8015,-2.7939,89876
168,-0.8046,0.7302,0.3979,4.3282,0.9695,-6.1069,89896
169,-0.7953,0.7239,0.418,3.2443,-3.6565,-7.9695,89916
170,-0.7734,0.7104,0.4053,-2.7863,-4.0229,-7.1145,89936
171,-0.7819,0.7185,0.4021,-12.8244,-2.7786,-3.2824,89956
172,-0.789,0.6826,0.4116,-22.4504,-3.9618,-1.9008,89976
173,-0.7785,0.6626,0.4062,-14.9084,-6.2977,-0.626,89996
174,-0.7746,0.7495,0.3938,-8.5344,-2.6107,6.4656,90016
175,-0.8056,0.7693,0.4683,-18.6565,-1.9237,18.6641,90036
0,0.097,-0.2971,0.7183,1.6489,4.1069,4.4885,92616
1,0.1519,-0.2361,0.7178,1.6641,4.687,5.8855,92636
2,0.1507,-0.2505,0.7109,2.0534,5.542,1.0382,92656
3,0.1526,-0.2554,0.728,3.9924,4.9618,-1.7481,92676
4,0.1573,-0.2273,0.7144,2.6565,3.2366,-2.0763,92696
5,0.149,-0.228,0.7119,-0.3053,0.4656,-0.4046,92716
6,0.1553,-0.2395,0.7104,-3.7405,-1.4351,0.8473,92736
7,0.1592,-0.2644,0.7417,-6.8015,-3.0611,1.3053,92756
8,0.1712,-0.2888,0.7346,-10.3817,-8.5802,-1.4504,92776
9,0.1002,-0.1426,0.6714,-3.9084,-2.687,4.8397,92796
10,0.1758,-0.2043,0.7041,-14.5649,-6.1298,35.0763,92816
11,0.1844,-0.3079,0.7688,-6.5191,1.2672,36.6183,92836
12,0.2943,-0.3801,0.5793,-6.9771,9.4733,13.2748,92856
13,0.1497,-0.2141,0.7346,-4.6412,6.2824,7.9237,92876
14,0.0882,-0.0811,0.783,-40,-4.1908,15.7328,92896
15,0.0701,-0.2156,0.8376,-70.4733,-1.4962,15.2366,92916
16,0.1336,-0.311,0.8191,-90.6107,-11.8626,18.229,92936
17,0.2173,-0.4338,0.7817,-83.2977,-4.5649,18.3969,92956
18,0.2652,-0.4126,0.7302,-73.1374,8.374,18.7481,92976
19,0.2117,-0.4092,0.6638,-66.6489,32.0153,29.0763,92996
20,0.1026,-0.5012,0.7061,-53.5725,43.0076,36.626,93016
21,0.1524,-0.6077,0.731,-36.3893,49.4275,31.6489,93036
22,0.1522,-0.5732,0.6777,-26.9313,63.8855,38.7481,93056
23,0.0494,-0.5042,0.613,-27.6794,73.3359,52.8702,93076
24,-0.0739,-0.5398,0.6484,-34.3511,73.1527,63.7863,93096
25,-0.0976,-0.6609,0.6003,-24.1679,62.9618,71.2366,93116
26,-0.0917,-0.6101,0.5461,-12.3282,62.0992,84.7557,93136
27,-0.1159,-0.5137,0.502,-23.3664,57.7252,100.8397,93156
28,-0.1762,-0.4587,0.4573,-44.7252,51.4351,119.8015,93176
29,-0.2553,-0.5068,0.4607,-54.6107,38.2061,132.6488,93196
30,-0.2585,-0.5303,0.3767,-49.4351,28.313,139,93216
31,-0.2648,-0.4141,0.312,-46.0534,30.5496,148.0076,93236
32,-0.3715,-0.3655,0.3306,-45.4351,26.8855,155.5038,93256
33,-0.4042,-0.3665,0.2969,-46.4122,15.4504,162.2977,93276
34,-0.4182,-0.2949,0.2493,-46.8321,14.3435,164.3969,93296
35,-0.4848,-0.2705,0.2556,-52.4046,15.8855,161.9847,93316
36,-0.5451,-0.2449,0.2388,-54.0382,11.9542,156.3664,93336
37,-0.5729,-0.1858,0.2214,-55.145,6.2519,151.5267,93356
38,-0.6061,-0.1682,0.2253,-60.1221,2.3817,152.2137,93376
39,-0.6476,-0.1406,0.2478,-58.9237,-1.084,150.5343,93396
40,-0.6848,-0.1504,0.2683,-51.0763,-12.9542,145.1298,93416
41,-0.6679,-0.1223,0.27,-35.3817,-26.3969,140.0229,93436
42,-0.6406,-0.0698,0.2441,-17.855,-31.6794,140.2443,93456
43,-0.6061,0.0442,0.2395,-12.3664,-25.1985,142.771,93476
44,-0.6252,0.0828,0.2529,-20.3817,-18.4122,139.8397,93496
45,-0.6657,0.0815,0.2981,-28.4962,-20.7863,130.4809,93516
46,-0.6845,0.1025,0.2856,-26.2366,-28.4886,119.4427,93536
47,-0.6408,0.1658,0.2683,-18.145,-34.9389,111.2672,93556
48,-0.5964,0.2009,0.2605,-18.7939,-33.8702,106.7405,93576
49,-0.5942,0.2058,0.2612,-24.3588,-23.6336,98.3969,93596
50,-0.6555,0.2629,0.2644,-27.9618,-15.2519,89.1069,93616
51,-0.7192,0.2874,0.3098,-38.687,-18.1069,82.1527,93636
52,-0.7724,0.29,0.3098,-52.3588,-27.2595,72.9084,93656
53,-0.8051,0.2681,0.3069,-60.3511,-38.3359,64.4198,93676
54,-0.809,0.3044,0.3296,-61.3511,-47.4427,59.2366,93696
55,-0.8044,0.3215,0.332,-62.5191,-50.2595,57.8931,93716
56,-0.8015,0.3037,0.355,-62.8092,-54.3588,56.7328,93736
57,-0.7756,0.2812,0.3716,-58.1527,-55.916,54.229,93756
58,-0.7365,0.2546,0.3997,-49.1603,-56.3359,50.5267,93776
59,-0.6982,0.3066,0.4312,-41.8855,-49.4656,47.8321,93796
60,-0.6977,0.3701,0.4717,-45.5267,-43.1985,46.9924,93816
61,-0.6867,0.3362,0.4524,-53.1985,-37.2061,44.5802,93836
62,-0.673,0.2629,0.4636,-43.3817,-29.5649,36.9924,93856
63,-0.6335,0.2451,0.4844,-23.5954,-16.229,30.4122,93876
64,-0.6535,0.3184,0.4478,-11.1069,2.6718,27.8931,93896
65,-0.7346,0.3792,0.4604,-14.3282,6.8168,28.7557,93916
66,-0.7836,0.3108,0.5039,-23.5649,-7.0382,24.9771,93936
67,-0.6913,0.2634,0.5166,-7.0153,-8.626,11.4885,93956
68,-0.6269,0.4031,0.5103,4.6412,7.1985,10.3206,93976
69,-0.7133,0.4607,0.446,-12.0382,20.4733,16.3893,93996
70,-0.8478,0.342,0.4878,-35.5878,10.1756,16.0458,94016
71,-0.84,0.2427,0.5034,-33.2901,-10.4275,5.0992,94036
72,-0.715,0.2649,0.4502,-16.7481,-14.2137,-0.9847,94056
73,-0.6901,0.3496,0.4368,-9.1221,-0.3435,5.542,94076
74,-0.7712,0.3672,0.4707,-13.8855,4.855,10.4656,94096
75,-0.7585,0.2886,0.458,-15.4351,-2.0763,9.5496,94116
76,-0.7101,0.2673,0.4355,-0.6947,-1.084,4.5191,94136
77,-0.7221,0.334,0.4629,11.1985,5.2443,4.4122,94156
78,-0.7592,0.3437,0.4512,11.2595,6.4504,6.9008,94176
79,-0.7927,0.344,0.4478,9.9313,5.0763,9.145,94196
80,-0.7919,0.3486,0.4475,9.2977,3.5649,10.0611,94216
81,-0.7741,0.3672,0.4441,10.7939,4.2137,8.9084,94236
82,-0.7851,0.3657,0.4644,13.5344,7.0763,6.6336,94256
83,-0.8141,0.405,0.4812,15.6641,9,1.1069,94276
84,-0.8288,0.4629,0.4785,5.7863,7.3817,-0.6336,94296
85,-0.8115,0.4573,0.4377,-12.9924,5.2595,3.0534,94316
86,-0.8168,0.3726,0.4431,-25.6794,5.0382,5.2595,94336
87,-0.8085,0.3354,0.4363,-22.1374,1.6489,2.9313,94356
88,-0.7949,0.3447,0.4241,-9.9008,2.6565,-0.084,94376
89,-0.8068,0.3845,0.3982,2.0076,7.1908,-0.3206,94396
90,-0.8647,0.3989,0.4504,5.6565,7.9466,-1.7557,94416
91,-0.8881,0.3738,0.502,5.6565,-1.374,-7.1908,94436
92,-0.8415,0.3958,0.4651,9.8473,0.5267,-10.313,94456
93,-0.8237,0.417,0.4343,9.8092,4.5954,-9.8855,94476
94,-0.8386,0.4124,0.375,-1.6031,1.084,-7.3053,94496
95,-0.8307,0.396,0.4082,-17.1832,-4.084,-2.8321,94516
96,-0.7665,0.2744,0.4368,-21.0916,-3.7328,2.5115,94536
97,-0.7109,0.2126,0.4463,0.1603,8.1374,8.458,94556
98,-0.7353,0.3379,0.4331,19.4809,16.4351,13.9237,94576
99,-0.7895,0.4373,0.4512,11.1374,12.5267,11.7557,94596
100,-0.7993,0.4333,0.4065,-8.2748,1.3282,3.7786,94616
101,-0.7858,0.3682,0.4224,-15.3817,-1.2443,-5.8397,94636
102,-0.7717,0.3267,0.4446,-8.0382,2.8092,-8.8855,94656
103,-0.7934,0.3289,0.4556,-1.3664,6.8244,-7.0763,94676
104,-0.8212,0.3672,0.4458,-6.9466,3.9084,-4.6947,94696
105,-0.8215,0.3706,0.4321,-20.1527,-1.7634,-7.3511,94716
106,-0.8232,0.3511,0.4268,-26.855,-6.7252,-11.6641,94736
107,-0.799,0.3284,0.4202,-25.0916,-7.8626,-15.4427,94756
108,-0.7748,0.3306,0.4182,-25.1298,-7.7863,-12.3817,94776
109,-0.7453,0.2893,0.4167,-23.7252,-5.6718,-9.9695,94796
110,-0.738,0.2644,0.3979,-19.8779,-2.8092,-8.3053,94816
111,-0.7595,0.2595,0.4126,-14.229,1.0763,-7.3511,94836
112,-0.7614,0.2446,0.4031,-5.9313,2.2672,-4.4656,94856
113,-0.7612,0.2659,0.3972,7.5191,5.4885,-0.9466,94876
114,-0.787,0.3369,0.4333,10.3664,5.4504,3.229,94896
115,-0.7924,0.3601,0.4409,0.8626,2.0992,5.313,94916
116,-0.7985,0.3081,0.4182,-7.7328,1.7252,3.9237,94936
117,-0.8049,0.2876,0.4038,-6.916,1.5496,1.5344,94956
118,-0.8034,0.3015,0.4033,-1.4275,0.9313,1.0458,94976
119,-0.7973,0.3364,0.4207,-2.9237,1.5573,4.916,94996
120,-0.8205,0.324,0.4292,-5.542,3.3817,5.8092,95016
121,-0.8259,0.3225,0.4275,-4.9084,4.2748,5.5878,95036
122,-0.8239,0.3254,0.4033,-4.5649,5.8779,4.9924,95056
123,-0.8305,0.2925,0.4099,-5.2137,5.1374,6.6412,95076
124,-0.8098,0.2517,0.4119,-1.4504,3.3511,7.5191,95096
125,-0.777,0.2336,0.4077,11.5344,6.1374,7.7481,95116
126,-0.7866,0.2905,0.4001,20.4427,10.6489,10.2595,95136
127,-0.842,0.3401,0.4165,16.145,8.7099,11.7481,95156
128,-0.8461,0.3489,0.4221,9.687,4.3053,9.3588,95176
129,-0.8373,0.3174,0.415,13.313,4.8092,4.0458,95196
130,-0.841,0.3611,0.4036,20.4122,6.4046,0.084,95216
131,-0.8476,0.4233,0.4092,11.9313,3.1756,-0.855,95236
132,-0.8232,0.3809,0.415,-1.542,-1.5496,-2.6947,95256
133,-0.7939,0.3362,0.4109,-0.6565,1.0076,-5.6336,95276
134,-0.7831,0.3437,0.4207,5.0382,4.5191,-8.1603,95296
135,-0.7724,0.3508,0.4314,5.145,6.5267,-6.7863,95316
136,-0.7922,0.3262,0.4097,-0.5725,4.5649,-3.6336,95336
137,-0.7809,0.3081,0.3862,-3.374,3.9008,-3.1069,95356
138,-0.8264,0.3198,0.3906,-3.5344,4.458,-2.8626,95376
139,-0.8569,0.3274,0.3682,-4.6794,-3.1679,-4.5878,95396
140,-0.8112,0.3335,0.3887,-2.6718,-6.1069,-5.2443,95416
141,-0.8124,0.3389,0.4211,-2.1527,-6.3511,-4.8626,95436
142,-0.7817,0.3364,0.4307,-1.3969,-6.4198,-5.7786,95456
143,-0.7531,0.3489,0.4177,-7.6489,-5.2824,-3.4122,95476
144,-0.7575,0.3394,0.4185,-18.1908,-3.3435,-2.9389,95496
145,-0.7744,0.304,0.4065,-22.8397,-4.687,-5.0076,95516
146,-0.7712,0.2937,0.3821,-21.7023,-3.8168,-7.7634,95536
147,-0.7839,0.2927,0.4097,-18.7863,-3.8015,-8.4046,95556
148,-0.7912,0.2698,0.4431,-13.9771,-3.4275,-8.5344,95576
149,-0.7714,0.2373,0.429,-3.9542,0.9695,-6.7176,95596
150,-0.7851,0.2712,0.4294,2.4656,8.4122,-2.4046,95616
151,-0.8127,0.3105,0.4097,2.1298,10.9008,1.0382,95636
152,-0.8139,0.2864,0.3945,-2.0229,9.8855,2.9542,95656
153,-0.8146,0.2761,0.3582,-1.8015,7.916,-0.2443,95676
154,-0.8159,0.282,0.3557,0.1985,5.3206,-1.5115,95696
155,-0.8036,0.2864,0.376,-0.9466,1.7252,-1.3664,95716
156,-0.7817,0.2893,0.3923,-3.5267,2.9542,1.0687,95736
157,-0.7873,0.2773,0.3899,-3.7557,5.5191,2.374,95756
158,-0.8178,0.2759,0.3765,-0.2366,6.5954,0.4275,95776
159,-0.8137,0.2874,0.3936,1.2061,4.1832,-2.9084,95796
160,-0.7956,0.3027,0.3899,-1.9618,1.9466,-1.4809,95816
161,-0.7995,0.2866,0.3999,-5.0153,4.3664,-0.3511,95836
162,-0.8298,0.2966,0.3909,-3.2977,4.8092,-0.9389,95856
163,-0.8417,0.2971,0.3882,-2.2443,3.626,-2.8779,95876
164,-0.8315,0.2881,0.3962,-2.0382,2.7557,-2.7939,95896
165,-0.8198,0.2744,0.3909,-4.6031,3.2366,0.8626,95916
166,-0.8303,0.2585,0.3906,-2.8473,3.4122,2.4885,95936
167,-0.8452,0.2717,0.3792,2.4809,1.9695,0.6641,95956
168,-0.8495,0.3257,0.3879,5.8855,1.2366,-0.8473,95976
169,-0.8312,0.3389,0.385,0.7481,-1.2137,-1.0611,95996
170,-0.7944,0.343,0.356,-11.5878,-4.7405,2.9389,96016
171,-0.7839,0.301,0.3572,-22.0458,-6.3282,3.3664,96036
172,-0.8093,0.231,0.3772,-19.2137,-4.4275,-0.6641,96056
173,-0.8105,0.2422,0.3928,-6.1069,-1.313,-2.9466,96076
174,-0.811,0.3,0.427,-10.7099,-1.8397,2.8626,96096
175,-0.8122,0.2959,0.4077,-23.6947,-5.7786,6.626,96116
0,0.0955,-0.1841,0.7739,1.2901,1.7252,1.2519,98776
1,0.1243,-0.2107,0.7107,4.0763,2.771,-2.3206,98796
2,0.0987,-0.1965,0.7498,3.5496,2.2977,-3.771,98816
3,0.0958,-0.1941,0.759,4.3282,3.2443,-4.2595,98836
4,0.097,-0.2004,0.7473,2.8015,2.7634,-7.9237,98856
5,0.0999,-0.1667,0.7622,0.4962,2.3282,-10.0992,98876
6,0.1024,-0.178,0.7759,-2.1603,-0.2061,-6.0992,98896
7,0.1126,-0.1855,0.78,-3.4046,-2.1908,-4.3282,98916
8,0.1107,-0.1763,0.769,-4.6565,-4.1221,-2,98936
9,0.116,-0.158,0.7756,-9,-5.916,3.5878,98956
10,0.0906,-0.1533,0.886,-17.229,-23.1603,10.5267,98976
11,-0.0031,0.2178,0.9597,-41.1985,-51.2672,37.7405,98996
12,0.0877,-0.2917,0.6702,-61.6489,-4.1221,89.4885,99016
13,0.244,-0.3772,0.7715,-73.4809,-8.4809,3.1756,99036
14,0.118,-0.3469,0.8875,-73.1069,12.2137,31.1069,99056
15,0.1055,-0.2185,0.8083,-91.7405,9.3588,24.7786,99076
16,0.0797,-0.2969,0.7964,-129.3893,7.3588,42.8015,99096
17,0.1509,-0.4211,0.7026,-160.2672,13.7481,38.3664,99116
18,0.0589,-0.4729,0.6816,-157.9618,25.6794,38.1527,99136
19,0.0211,-0.5889,0.6482,-112.4885,32.374,35.8168,99156
20,0.0701,-0.7749,0.6101,-50.3053,38.8092,31.313,99176
21,0.0528,-0.7192,0.5417,-0.8092,57.2672,41.8015,99196
22,-0.0637,-0.6055,0.5894,8.1221,62.4885,60.5878,99216
23,-0.1574,-0.5688,0.5933,-5.3206,54.6183,75.3435,99236
24,-0.1823,-0.5879,0.5823,-27.6336,39,89.7481,99256
25,-0.1943,-0.6121,0.5408,-42.8092,27.916,102.0153,99276
26,-0.2062,-0.5859,0.4885,-46.9695,20.3664,118.5878,99296
27,-0.2155,-0.5605,0.4492,-49.7176,16.5344,136.626,99316
28,-0.257,-0.5146,0.3892,-52.0763,17.6183,149.4962,99336
29,-0.3415,-0.4827,0.3921,-53.5649,12.5649,155.3588,99356
30,-0.3632,-0.4624,0.3418,-60.6947,-3.3435,161.2824,99376
31,-0.3459,-0.3569,0.2407,-81.2748,-8.3206,171.2443,99396
32,-0.4194,-0.2515,0.2129,-104.0611,-6.2443,174.0076,99416
33,-0.5082,-0.3206,0.2456,-112.916,-15.7099,170.771,99436
34,-0.5239,-0.3528,0.2314,-101.0229,-36.0305,165.1985,99456
35,-0.4848,-0.2595,0.1611,-80.9466,-42.4656,165.1527,99476
36,-0.4794,-0.1365,0.1545,-73.5878,-34.3511,164.6336,99496
37,-0.5432,-0.0596,0.1858,-76.2214,-26.5496,157.313,99516
38,-0.6169,-0.0569,0.2251,-84.6565,-31.1832,148.9389,99536
39,-0.6684,-0.071,0.2224,-82.374,-40.7939,139.9313,99556
40,-0.6828,-0.0256,0.21,-67.4657,-47.542,133.2748,99576
41,-0.6613,0.0027,0.2153,-53.7939,-52.5496,131.7099,99596
42,-0.632,0.051,0.2163,-49.8168,-51.7786,125.2595,99616
43,-0.6303,0.1001,0.178,-54.6336,-40.0534,112.6031,99636
44,-0.6716,0.1113,0.2,-65.4122,-33.6183,98.6947,99656
45,-0.7299,0.0862,0.2507,-75.7634,-42.2748,85.6412,99676
46,-0.7331,0.1121,0.2307,-75.3435,-58.2901,80.5191,99696
47,-0.7006,0.1482,0.2126,-70.6031,-62.0611,81.2519,99716
48,-0.6953,0.1885,0.2412,-68.9389,-60.0382,81.9466,99736
49,-0.7104,0.1875,0.2424,-68.313,-61.626,77.8015,99756
50,-0.6955,0.158,0.2412,-68.7252,-64.3435,70.8168,99776
51,-0.6745,0.1672,0.2781,-69.145,-63.2748,61.9924,99796
52,-0.6645,0.1799,0.2874,-69.7252,-57.2214,54.0992,99816
53,-0.6857,0.1897,0.2866,-66.3053,-51.3359,47.5191,99836
54,-0.6994,0.2178,0.3491,-67.1832,-50.4656,41.7634,99856
55,-0.7038,0.21,0.3723,-75.0763,-51.916,37.1832,99876
56,-0.6923,0.1541,0.374,-77.5878,-49.6031,32.0687,99896
57,-0.6894,0.1162,0.3545,-68.9313,-42.7099,27.4198,99916
58,-0.6994,0.137,0.3313,-62.0916,-33.5802,25.2901,99936
59,-0.7209,0.1643,0.4268,-67.6794,-31.2519,23.1298,99956
60,-0.7138,0.1301,0.4392,-77.6412,-33.7328,19.1985,99976
61,-0.6906,0.0464,0.4099,-69.1908,-32.2137,16.8015,99996
62,-0.676,0.0146,0.3711,-42.8168,-23.7176,14.0229,100016
63,-0.6943,0.0818,0.3594,-22.8473,-13.3969,13.7786,100036
64,-0.747,0.1182,0.3809,-16.3282,-8.4122,13.3206,100056
65,-0.7636,0.0996,0.4229,-12.8015,-15.2519,11.0153,100076
66,-0.7221,0.103,0.4038,-5.855,-18.8321,10.8702,100096
67,-0.6703,0.1536,0.4243,3.2901,-4.5725,8.6565,100116
68,-0.7414,0.2285,0.439,-1.1679,7.1145,8.3588,100136
69,-0.791,0.2075,0.4358,-16.084,1.8168,5.7557,100156
70,-0.7841,0.1519,0.4045,-24.0687,-3.1221,3.1069,100176
71,-0.7687,0.1089,0.4072,-18.1985,-1.8321,0.5267,100196
72,-0.77,0.113,0.3989,-7.7939,-1.2595,0.8855,100216
73,-0.7355,0.2017,0.4045,-9.687,-1.2061,4.0076,100236
74,-0.6789,0.1602,0.3853,-21.0534,1.3817,8.5878,100256
75,-0.6889,0.0928,0.3398,-18.8473,12.3664,7.5115,100276
76,-0.7695,0.1013,0.3699,-7.4733,17.0382,2.2366,100296
77,-0.7868,0.1255,0.3755,6.9542,13.5573,0.0534,100316
78,-0.7573,0.1748,0.3904,16.1069,15.9924,0.1603,100336
79,-0.7648,0.1997,0.3923,13.8855,21.1527,3.1603,100356
80,-0.7963,0.1853,0.415,2.1374,19.7328,3.0382,100376
81,-0.8056,0.1587,0.3716,-7.4733,12.5802,1.9084,100396
82,-0.7919,0.1484,0.3342,-7.0611,10.313,1.374,100416
83,-0.7846,0.1401,0.3652,-2.542,10.0763,0.3053,100436
84,-0.7631,0.1477,0.3779,0.7405,10.6947,1.3359,100456
85,-0.7692,0.1331,0.364,2.2977,15.7023,0.8473,100476
86,-0.8083,0.1384,0.3643,-0.3969,14.0153,-0.0153,100496
87,-0.822,0.1475,0.3074,-4.7023,10.4885,-2.1756,100516
88,-0.8193,0.1455,0.2932,-7.9084,7.4809,-2.4809,100536
89,-0.8185,0.1304,0.311,-6.2137,4.0534,-1.7176,100556
90,-0.8183,0.1326,0.3215,-2.4275,2.5496,-0.3511,100576
91,-0.8061,0.1511,0.3733,-1.2443,1.771,0.5725,100596
92,-0.7961,0.1436,0.3513,-1.4809,1.9237,0.7099,100616
93,-0.801,0.1628,0.3347,-3.0992,0.6718,0.2061,100636
94,-0.8161,0.2163,0.3264,-10.7252,-1.8321,-1.3435,100656
95,-0.8107,0.2295,0.3381,-22.2977,-3.374,-2.5649,100676
96,-0.7809,0.1826,0.3435,-28.0229,-3.4275,-3.6031,100696
97,-0.7751,0.1335,0.3489,-25,-1.3282,-4.1603,100716
98,-0.787,0.1216,0.3359,-24.229,-2.7176,-4.9695,100736
99,-0.8205,0.1636,0.3064,-35.1603,-7.2824,-3.7176,100756
100,-0.7988,0.1633,0.3232,-50.8092,-10.7863,-3.3893,100776
101,-0.791,0.083,0.3279,-48.2366,-9.2672,-3.9237,100796
102,-0.7824,0.0427,0.3337,-30.313,-4.2595,-2.6489,100816
103,-0.7902,0.0967,0.3196,-17.8397,1.7023,0.4733,100836
104,-0.8307,0.1365,0.2981,-24.0153,-1.2214,1.7252,100856
105,-0.82,0.1177,0.301,-35.9618,-9.6336,-2.5115,100876
106,-0.7866,0.0718,0.2898,-38.145,-13.8321,-6.2977,100896
107,-0.748,0.0581,0.2771,-31.6107,-10.9313,-4.8168,100916
108,-0.758,0.063,0.2681,-24.8397,-7.8931,-2.0229,100936
109,-0.7748,0.0701,0.2749,-20.3435,-9.9542,-2.1527,100956
110,-0.7656,0.082,0.2502,-18.8321,-13.4809,-2.5496,100976
111,-0.7404,0.0415,0.2639,-14.1985,-11.0763,-2.9924,100996
112,-0.7387,0.01,0.26,-1.8015,-3.1374,-3.0687,101016
113,-0.7563,0.0232,0.2825,8.9084,2.626,-2.3435,101036
114,-0.7641,0.0369,0.2986,11.0687,5.6794,-1.0916,101056
115,-0.7902,0.0493,0.2964,11.4427,8.7939,0.2977,101076
116,-0.829,0.0894,0.3027,10.6794,7.2672,2.3435,101096
117,-0.8188,0.1067,0.3054,9.7176,0.5573,2.2137,101116
118,-0.78,0.1121,0.3357,5.9771,-3.1832,1.8626,101136
119,-0.7612,0.0864,0.345,3.2977,-0.2519,-0.8244,101156
120,-0.7602,0.0696,0.3423,2.3053,1.6489,-2.7405,101176
121,-0.7455,0.0562,0.325,4.6641,2.9466,-4.0153,101196
122,-0.7414,0.0933,0.2756,5.8015,5.9924,-4.9542,101216
123,-0.7704,0.1016,0.2737,3.4504,6.6947,-5.3053,101236
124,-0.7927,0.0989,0.2932,2.7405,4.7557,-4.6718,101256
125,-0.7858,0.0305,0.3157,6.8931,3.5802,-2.9389,101276
126,-0.7556,0.0264,0.304,15.542,7.1832,0.1832,101296
127,-0.7665,0.0754,0.2834,14.7176,11.8321,4.374,101316
128,-0.8022,0.1108,0.2761,5.916,11.4351,5.5878,101336
129,-0.8139,0.1013,0.2783,-2.0534,5.0611,3.9237,101356
130,-0.79,0.0664,0.2966,-0.0153,2.0534,2.1908,101376
131,-0.7546,0.0542,0.3208,7.6183,4.7328,2.3969,101396
132,-0.7602,0.0708,0.321,10.4046,9.0305,3.5802,101416
133,-0.7968,0.0786,0.3105,5.2366,7.3817,2.4885,101436
134,-0.8122,0.0786,0.283,2.6107,3.2519,0.9008,101456
135,-0.7932,0.0498,0.2671,7.9389,1.0916,0.3893,101476
136,-0.7766,0.0286,0.2964,20.2824,4.5649,1.9771,101496
137,-0.791,0.0498,0.3027,28.0992,8.4885,5.5954,101516
138,-0.8229,0.0947,0.3206,25.6336,7.8702,7.9695,101536
139,-0.8283,0.0945,0.312,23.542,3.9389,7.0229,101556
140,-0.7885,0.0798,0.2695,29.0992,4.5878,5.5267,101576
141,-0.7753,0.1013,0.2754,34.1527,8,8.2519,101596
142,-0.7805,0.134,0.2942,29.7099,6.6718,11.0611,101616
143,-0.7851,0.1709,0.2935,18.6489,4.7863,11.5344,101636
144,-0.7961,0.1763,0.3274,8.8702,2.6794,9.6107,101656
145,-0.798,0.1819,0.3367,7.2672,1.542,7.5038,101676
146,-0.8002,0.1711,0.3042,7.8702,4.0992,7.229,101696
147,-0.8083,0.1372,0.3145,5.2824,3.6031,8.3969,101716
148,-0.8107,0.1152,0.3457,4.3053,1.4962,9.2443,101736
149,-0.7917,0.1245,0.3472,10.4809,1.2061,7.0153,101756
150,-0.8078,0.178,0.3684,14.3817,4.229,5.7481,101776
151,-0.8137,0.2019,0.3491,6.4275,1.5038,5,101796
152,-0.8049,0.2144,0.3303,-5.3969,-1.1756,3.3053,101816
153,-0.8166,0.1868,0.3281,-15.1756,-5.5878,-0.4504,101836
154,-0.7951,0.1545,0.2903,-12.6718,-8.1603,-4.3282,101856
155,-0.7888,0.1733,0.2815,-2.4656,-6.0916,-4.2977,101876
156,-0.7902,0.1775,0.2866,4.0687,-4.8168,-2.6489,101896
157,-0.8093,0.1528,0.2861,0.3817,-7.4427,-0.4122,101916
158,-0.7973,0.1255,0.3457,-6.6107,-11.2443,-0.7863,101936
159,-0.7663,0.1187,0.3394,-9.4275,-10.5725,1.5878,101956
160,-0.7685,0.1189,0.334,-3.8779,-4.9695,1.5725,101976
161,-0.7929,0.1797,0.2979,-3.2519,-1.542,0.1908,101996
162,-0.8329,0.1829,0.312,-10.5267,-6.3893,-2.3817,102016
163,-0.8178,0.1377,0.3086,-14.7405,-14.1985,-4.6641,102036
164,-0.7819,0.0916,0.3062,-9.2824,-12.855,-4.7557,102056
165,-0.78,0.082,0.3337,-1.7557,-6.7634,-4.4351,102076
166,-0.7827,0.1086,0.3645,-2.3588,-5.9771,-4.4733,102096
167,-0.7736,0.1023,0.3511,-3.4351,-2.6183,-3.6183,102116
168,-0.7839,0.1013,0.3401,3.5802,0.3969,-3.7863,102136
169,-0.7807,0.1245,0.3311,11.7328,2.1374,-3.4656,102156
170,-0.7961,0.1631,0.3313,9.3435,2.4122,-2.1908,102176
171,-0.81,0.1716,0.3474,-1.9313,-1.6947,-3.8321,102196
172,-0.7704,0.1184,0.3347,-6.3511,-3.5115,-5.1374,102216
173,-0.7477,0.0972,0.3235,-1.3206,3.8321,-4.4275,102236
174,-0.7766,0.1135,0.3464,0.0611,8.3588,-1.5191,102256
175,-0.7985,0.1003,0.3276,-1.7252,6.0458,-0.3664,102276
0,0.2154,-0.3057,0.4895,4.5649,15.6183,-7.0992,104836
1,0.0826,-0.2288,0.6997,3.1221,6.5115,-4.4351,104856
2,0.076,-0.2466,0.7043,2.0534,4.0076,-1.7252,104876
3,0.0816,-0.2556,0.7036,0.084,1.6031,-0.5954,104896
4,0.0792,-0.2739,0.7261,-2.458,-1.9847,0.0076,104916
5,0.0714,-0.2937,0.7471,-8.7099,-9.5954,-1.7939,104936
6,0.0696,-0.3242,0.759,-17.374,-22.458,-0.5191,104956
7,-0.0131,-0.3418,0.7964,-13.8702,-29.2977,-6.1221,104976
8,0.1385,-0.2256,0.7361,-12.2061,-14.3588,9.7176,104996
9,0.063,-0.1409,0.7512,-34.8779,-25.1679,40.8473,105016
10,0.0628,-0.3379,0.8064,-61.6412,-32.6412,38.6183,105036
11,0.1807,-0.4294,0.7339,-61.1298,-29.9542,23.4962,105056
12,0.1741,-0.3765,0.71,-59.2214,-8.2595,22.8244,105076
13,0.0792,-0.2549,0.7424,-86.2519,-5.0305,32.458,105096
14,0.1339,-0.4258,0.6123,-100.8855,-1.0382,38.3053,105116
15,0.1234,-0.5706,0.657,-79.8855,17.687,34.2595,105136
16,0.1424,-0.6602,0.6353,-30.3817,33.0916,26.0153,105156
17,0.1058,-0.5781,0.6033,1.9084,47.5649,28.7405,105176
18,0.0323,-0.4878,0.627,1.9084,45.145,38.7405,105196
19,-0.0095,-0.4407,0.5757,-11.626,40.6489,62.2366,105216
20,-0.1205,-0.4404,0.627,-14.3511,41.1298,91.9313,105236
21,-0.2363,-0.5098,0.6904,-44.8779,23.4275,70.8397,105256
22,-0.143,-0.5125,0.5088,-61.1832,20.5954,88.7328,105276
23,-0.1967,-0.5156,0.5083,-80.9695,18.8397,103.5343,105296
24,-0.2255,-0.5278,0.4602,-105.4733,8.7786,114.0992,105316
25,-0.2436,-0.4741,0.3274,-122.0534,7.0153,129.855,105336
26,-0.3237,-0.5178,0.3159,-140.2061,-0.1908,143.0076,105356
27,-0.3537,-0.5859,0.2664,-155.687,-17.5114,151.9847,105376
28,-0.3417,-0.5305,0.1606,-158.771,-23.3664,162.5802,105396
29,-0.4306,-0.501,0.1377,-146.2519,-21.5573,165.7863,105416
30,-0.527,-0.501,0.1677,-130.9008,-35.4122,168.3893,105436
31,-0.562,-0.4304,0.1731,-104.2595,-54.9084,166.8397,105456
32,-0.551,-0.3628,0.1433,-81.3511,-74.1145,164.7939,105476
33,-0.5053,-0.2812,0.0947,-74.3511,-82.1298,162.9313,105496
34,-0.5068,-0.2034,0.0603,-73.9389,-74.3206,156.3588,105516
35,-0.5768,-0.2087,0.0999,-73.6718,-71.6565,145.8855,105536
36,-0.6096,-0.2275,0.1155,-64.7481,-76.9695,135.2443,105556
37,-0.5756,-0.1702,0.1013,-48.8779,-83.7557,124.7023,105576
38,-0.5356,-0.0781,0.0811,-37.9389,-73.7023,118.6412,105596
39,-0.5522,-0.0198,0.1282,-37.4427,-61.0229,115.4351,105616
40,-0.6054,0.0037,0.1733,-37.313,-57.313,109.4962,105636
41,-0.6518,-0.0046,0.1555,-35.3359,-58.6489,106.2977,105656
42,-0.6494,-0.0093,0.175,-39.7252,-62.3206,104.8321,105676
43,-0.645,0.0374,0.2009,-50.5038,-60.7786,98.1374,105696
44,-0.662,0.0798,0.1865,-57.0458,-57.8397,89.3664,105716
45,-0.6804,0.0605,0.1924,-53.1679,-59.1298,82.8244,105736
46,-0.6789,0.0896,0.2021,-46.2061,-61.0305,79.0916,105756
47,-0.6948,0.1631,0.2449,-46.8931,-57.855,76.8244,105776
48,-0.7082,0.1665,0.283,-59.1756,-62.8855,72.7557,105796
49,-0.7011,0.1221,0.2498,-61.8779,-66.6794,64.5649,105816
50,-0.6813,0.0984,0.2686,-48.229,-65.1756,56.4046,105836
51,-0.6879,0.1648,0.3406,-37.229,-58.0305,49.626,105856
52,-0.6984,0.2092,0.3706,-39.3206,-55.6641,43.1679,105876
53,-0.6806,0.1838,0.3528,-44.9008,-57.9847,37.2595,105896
54,-0.6467,0.1658,0.3596,-48.3053,-52.1908,31.5573,105916
55,-0.6567,0.217,0.4067,-55.0305,-42.6565,28.4886,105936
56,-0.6767,0.1768,0.4329,-56.8473,-40.5115,25.2519,105956
57,-0.6794,0.1306,0.4246,-46.7939,-35.1679,19.5267,105976
58,-0.6877,0.1296,0.3911,-35.6412,-27.9618,16.3511,105996
59,-0.7141,0.175,0.4021,-31.6565,-21.8855,14.2595,106016
60,-0.7045,0.167,0.4211,-33.2366,-23.0687,11.5115,106036
61,-0.6967,0.1733,0.4741,-32.9389,-14.3893,8.4656,106056
62,-0.7158,0.1504,0.4678,-31.3588,-8.0153,5.9924,106076
63,-0.7463,0.1462,0.4399,-33.229,-0.8626,3.5802,106096
64,-0.789,0.1382,0.3967,-37.3435,-0.1603,0.1603,106116
65,-0.8137,0.1418,0.3904,-36.8244,-7,-3.6641,106136
66,-0.7556,0.1638,0.4211,-42.771,-18.9313,-2.6947,106156
67,-0.6669,0.1296,0.3804,-50.7939,-21.7328,3.2595,106176
68,-0.6281,0.0615,0.3096,-42.3053,-7.5038,6.8931,106196
69,-0.6738,-0.0183,0.3645,-18.626,11.5878,4.5191,106216
70,-0.705,-0.0439,0.3962,11.1069,14.5115,-0.626,106236
71,-0.7165,0.0464,0.4099,31.8015,16.5191,0.8702,106256
72,-0.7316,0.136,0.4023,31.0153,18.9313,3.6336,106276
73,-0.7277,0.1819,0.3804,18.2901,20.4504,0.3969,106296
74,-0.7448,0.1592,0.342,6.8244,23.9084,-4.8702,106316
75,-0.7961,0.1194,0.3552,2.7099,21.5496,-10,106336
76,-0.8176,0.1274,0.3735,1.7863,11.4122,-10.6183,106356
77,-0.7956,0.1064,0.3784,-0.3359,5.0305,-10.9237,106376
78,-0.7678,0.083,0.3801,2.0076,6.5725,-10.0305,106396
79,-0.7592,0.084,0.3757,8.0305,12.5649,-7.7252,106416
80,-0.7641,0.1211,0.4019,11.6565,15.0916,-5.9466,106436
81,-0.7756,0.1492,0.3738,5.6641,13.374,-4.8702,106456
82,-0.8002,0.1594,0.355,-5.9084,9.145,-6.3588,106476
83,-0.81,0.115,0.3447,-13.1908,4.3511,-8.855,106496
84,-0.7939,0.0803,0.3394,-12.5115,1.3817,-9.5954,106516
85,-0.7944,0.1101,0.373,-12.8931,0.4885,-5.1603,106536
86,-0.8163,0.1265,0.4131,-19.1145,-3.6336,-1.5191,106556
87,-0.7971,0.0994,0.3735,-24.0153,-6.8702,-0.2214,106576
88,-0.7751,0.0916,0.3459,-26.2748,-5.084,-1.1374,106596
89,-0.767,0.0908,0.3167,-28.626,-5.4733,-2.0153,106616
90,-0.7736,0.0981,0.3306,-32.4122,-9.5725,-3.2901,106636
91,-0.7634,0.0867,0.3032,-36.7786,-13.916,-5.2061,106656
92,-0.7582,0.0964,0.301,-43.5496,-16.6107,-4.1145,106676
93,-0.7477,0.1016,0.3523,-51.1145,-17.6107,-0.5878,106696
94,-0.7353,0.0618,0.3564,-50.5725,-17.313,0.2519,106716
95,-0.7138,0.0186,0.3679,-40.6183,-14.084,-0.3511,106736
96,-0.7316,-0.0266,0.3008,-29.5038,-11.8092,-1.9695,106756
97,-0.7619,-0.0078,0.2798,-28.6336,-14.4275,-0.0611,106776
98,-0.7768,-0.0024,0.3101,-33.5115,-21.0611,-1.9389,106796
99,-0.7424,0.0144,0.3276,-37.5954,-27.2977,-0.855,106816
100,-0.6962,0.0085,0.302,-32.7405,-23.3282,1.3893,106836
101,-0.6594,-0.0432,0.2693,-17.4809,-7.8931,4.313,106856
102,-0.6784,-0.0691,0.2576,5.3664,11.1603,4.9008,106876
103,-0.716,-0.0457,0.2568,20.9008,22.6565,6.4962,106896
104,-0.7387,-0.0122,0.2522,33.145,28.4962,5.0763,106916
105,-0.7543,0.0234,0.2922,33.4656,31.6412,4.4427,106936
106,-0.7824,0.052,0.3164,23.4198,30.0305,3.2519,106956
107,-0.7932,0.0713,0.3276,8.4504,24.0076,1.7023,106976
108,-0.7697,0.053,0.2571,-2.5115,26.8779,0.5573,106996
109,-0.7888,0.0073,0.2832,-1.1298,16.7099,0.0382,107016
110,-0.7895,-0.0371,0.2822,9.771,15,-2.1374,107036
111,-0.7851,0.0261,0.3047,17.2901,11.374,0.8397,107056
112,-0.7873,0.0422,0.3108,18.916,9.6031,2.6718,107076
113,-0.7863,0.0354,0.3203,21.4122,10.2366,0.9466,107096
114,-0.7822,0.0481,0.2944,26.1756,12.229,-0.4733,107116
115,-0.7797,0.075,0.2834,25.1374,13.6794,1.916,107136
116,-0.7939,0.0901,0.2925,16.5802,11.8855,5.8092,107156
117,-0.8102,0.0627,0.2837,11.458,7.1069,4.3511,107176
118,-0.8085,0.0723,0.2842,12.0687,2.8168,1.7481,107196
119,-0.8134,0.1201,0.2759,8.8015,2.7099,2.626,107216
120,-0.8139,0.0999,0.3296,-1.1221,-1.6794,3.7481,107236
121,-0.7783,0.0562,0.3523,-4.4427,-4.855,5.3664,107256
122,-0.7565,0.05,0.3315,2.5954,-1.5725,5.9084,107276
123,-0.7697,0.0813,0.3186,3.9924,1.4656,6.8626,107296
124,-0.7875,0.1055,0.3101,-5.2366,-2.0992,7.4275,107316
125,-0.7761,0.1104,0.2861,-17.7634,-5.145,8.1832,107336
126,-0.7968,0.1094,0.2871,-25.4733,-7.8321,9.229,107356
127,-0.7817,0.0784,0.2756,-25.4504,-10.5802,8.374,107376
128,-0.7595,0.0754,0.29,-20.9695,-11.1527,7.4733,107396
129,-0.7578,0.0713,0.2961,-18.8473,-8.4351,4.4504,107416
130,-0.7658,0.064,0.2788,-20.5573,-8.3435,2.3206,107436
131,-0.7758,0.0591,0.281,-19.7176,-8.0229,-0.5573,107456
132,-0.7844,0.0254,0.2822,-17.084,-11.7557,-4.2672,107476
133,-0.7565,0.0134,0.2576,-11.1908,-12.084,-4.2824,107496
134,-0.7304,0.0007,0.2529,-1.6336,-5.8168,-2.4198,107516
135,-0.718,-0.0332,0.2561,13.7939,6.6641,-1.5038,107536
136,-0.7424,-0.019,0.2395,36.1756,20.2061,0.0153,107556
137,-0.7717,0.0068,0.2988,57.6565,26.4733,0.0153,107576
138,-0.8044,0.0854,0.3118,59.7863,26.0229,0.4275,107596
139,-0.8246,0.1309,0.3074,46.0076,17.4427,0.0382,107616
140,-0.7995,0.1704,0.344,30.5114,11.2519,-3.0076,107636
141,-0.779,0.1736,0.3206,15.7328,8.3588,-2.9542,107656
142,-0.7707,0.1074,0.2825,9.1756,7.7557,-4.458,107676
143,-0.7795,0.0896,0.2966,7.3053,8.9084,-4.0916,107696
144,-0.7922,0.0537,0.2874,8.9237,9.0305,-3.2595,107716
145,-0.7836,0.0442,0.2847,14.5725,9.687,-0.5725,107736
146,-0.79,0.0664,0.2739,19.3588,11.1298,3.6947,107756
147,-0.8027,0.1001,0.2896,17.7481,11.2977,6.229,107776
148,-0.8146,0.0986,0.3108,14,6.9847,7.2977,107796
149,-0.798,0.1016,0.3025,12.8779,3.9466,5.9618,107816
150,-0.7824,0.0959,0.2673,17.0382,7.5878,5.229,107836
151,-0.8027,0.1101,0.2661,17.9542,9.4275,6.5802,107856
152,-0.8327,0.1208,0.3069,12.2061,5.4733,8.855,107876
153,-0.8224,0.1233,0.3108,4.7863,0.6336,8.855,107896
154,-0.82,0.1335,0.3169,4.6412,0.0076,5.2824,107916
155,-0.8251,0.1421,0.3267,5.7176,-0.9466,0.7634,107936
156,-0.8234,0.2036,0.335,-0.6565,-1.8626,0.084,107956
157,-0.8181,0.2192,0.3564,-19.3282,-4.6794,0.6336,107976
158,-0.8146,0.1628,0.324,-36.7557,-8.1985,-1.0229,107996
159,-0.7924,0.0737,0.2856,-36.5115,-9.9924,-3.0458,108016
160,-0.7719,0.0774,0.262,-25.0382,-8.0763,-1.7939,108036
161,-0.7741,0.1228,0.2891,-22.2824,-8.3435,2.5954,108056
162,-0.7805,0.1272,0.2749,-26.4886,-9.6031,1.6183,108076
163,-0.7729,0.1016,0.2715,-28.0992,-11.0076,-1.4122,108096
164,-0.7751,0.0784,0.282,-22.3817,-10.0687,-3.3282,108116
165,-0.7795,0.0657,0.2759,-16.0229,-9.6718,-3.6794,108136
166,-0.7966,0.0752,0.2578,-10.4504,-9.5573,-4.916,108156
167,-0.7975,0.0979,0.2534,-10.542,-13.2214,-6.0687,108176
168,-0.7678,0.0706,0.2651,-11.5802,-15.5038,-6.145,108196
169,-0.735,0.0398,0.27,-5.4656,-9.4046,-4.8321,108216
170,-0.7287,0.0122,0.293,4.374,1.3969,-4.145,108236
171,-0.7495,0.0078,0.3069,14.4275,10.9008,-2.0153,108256
172,-0.7929,0.0479,0.2856,22.3817,17.1985,0.8092,108276
173,-0.8295,0.095,0.3103,22.4886,16.6489,3.0153,108296
174,-0.8359,0.1067,0.3101,16.7328,11.2214,2.771,108316
175,-0.8215,0.1316,0.333,9.0076,5.8626,1.1985,108336
0,0.0604,-0.1738,0.7839,9.8015,3.9466,-6.9618,111396
1,0.1219,-0.2349,0.7024,2.6794,3.6183,-3.8397,111416
2,0.1141,-0.2383,0.7166,0.5344,0.2977,-2.7634,111436
3,0.1309,-0.23,0.7104,-0.1145,-1.145,-0.6565,111456
4,0.1363,-0.2415,0.7073,-0.1374,-1.0305,2.145,111476
5,0.1363,-0.2544,0.7224,-0.9924,-2.7176,3.6412,111496
6,0.1204,-0.2529,0.7273,-1.7023,-5.9847,3.7786,111516
7,0.126,-0.2349,0.7212,-4.8779,-9.6107,7.0153,111536
8,-0.184,-0.5625,0.978,-5.855,-34.1908,-3.8779,111556
9,0.1197,-0.3101,0.801,-4.8931,-22.3282,1.8321,111576
10,0.1866,-0.27,0.6416,6.0916,-9.6794,0.7634,111596
11,0.0435,-0.02,0.8044,-6.5267,-26.4656,25.3511,111616
12,0.0855,-0.3569,0.7312,-37.6031,-28.3053,28.9847,111636
13,0.2584,-0.2847,0.6929,-34.4046,-21.3053,12.542,111656
14,0.1419,-0.2249,0.8418,-41.7405,-16.145,12.2214,111676
15,0.2432,-0.3054,0.7498,-62.4351,-23,25.7634,111696
16,0.2623,-0.3447,0.7144,-65.7099,-9.4733,29.1145,111716
17,0.189,-0.4817,0.6584,-69.5191,5.5115,27.8702,111736
18,0.2962,-0.3689,0.6772,-64.2214,17.7786,33.9237,111756
19,0.2007,-0.4917,0.7146,-51.8244,35.7176,38.9084,111776
20,0.1763,-0.4763,0.7107,-38.084,39.8092,45.2061,111796
21,0.1002,-0.5146,0.7026,-50.9237,43.855,45.9008,111816
22,0.0775,-0.5649,0.644,-45.2519,55.6336,55.4656,111836
23,-0.0012,-0.5557,0.6597,-23.313,64.5725,64.0687,111856
24,-0.0256,-0.5837,0.6743,-9.1908,60.2748,74.0611,111876
25,0.012,-0.5825,0.6257,-11.7557,55.855,85.916,111896
26,-0.0331,-0.552,0.5798,-28.1298,56.5267,104,111916
27,-0.0832,-0.4885,0.4802,-49.2748,60.1756,123.0687,111936
28,-0.2082,-0.4729,0.4858,-78.8244,58.3053,140.3282,111956
29,-0.2692,-0.5029,0.459,-108.5343,41.855,152.9847,111976
30,-0.2919,-0.4856,0.3914,-123.3664,30.7023,162.8702,111996
31,-0.3288,-0.4275,0.2727,-124.8092,27.0382,169.7252,112016
32,-0.3984,-0.3894,0.2187,-124.3435,23.1679,175.6947,112036
33,-0.4623,-0.3452,0.2119,-125.4275,10.8168,179.9084,112056
34,-0.5085,-0.3164,0.1943,-121.8702,-4.2824,181.6794,112076
35,-0.4963,-0.2979,0.1147,-124.9542,-14.458,183.8244,112096
36,-0.527,-0.2224,0.0972,-126.8855,-9.0992,177.0076,112116
37,-0.613,-0.2229,0.126,-125.6031,-6.2824,169.8626,112136
38,-0.7062,-0.2432,0.1157,-103.3893,-23.229,163.1145,112156
39,-0.7194,-0.1968,0.0886,-72.4657,-45.4809,157.6718,112176
40,-0.6794,-0.0742,0.0757,-48.0763,-51.8626,155.5954,112196
41,-0.6816,-0.0095,0.0776,-29.4886,-44.4962,151.5343,112216
42,-0.7299,-0.0017,0.0884,-13.6183,-41.374,144.5573,112236
43,-0.7595,0.0403,0.1245,-3.3664,-49.7786,135.855,112256
44,-0.7421,0.1035,0.1543,-3.5649,-61.9924,129.5649,112276
45,-0.7087,0.1689,0.1213,-6.1679,-63.0992,126,112296
46,-0.7299,0.2043,0.1379,-6.9008,-56.3588,123.1908,112316
47,-0.757,0.2209,0.1953,-4.0076,-56.9008,116.626,112336
48,-0.7394,0.2402,0.1968,1.4885,-60.6183,108.4657,112356
49,-0.7018,0.3091,0.1729,-1.5038,-56.9008,106.7023,112376
50,-0.7275,0.3538,0.2168,-12.9389,-48.8321,104.4122,112396
51,-0.7885,0.3484,0.2998,-22.8244,-52.2214,94.7634,112416
52,-0.7546,0.3242,0.2854,-22.6947,-65.9237,83.0763,112436
53,-0.6865,0.343,0.2668,-11.7252,-63.6031,75.1756,112456
54,-0.6611,0.4265,0.2861,0.1908,-51.374,74.4427,112476
55,-0.6855,0.4736,0.345,0.916,-40.9924,74.7939,112496
56,-0.7087,0.459,0.3931,-2.771,-38.7099,69.5496,112516
57,-0.6979,0.4419,0.3923,-2.3511,-37.458,61.8168,112536
58,-0.6879,0.4622,0.4106,1.458,-30.9542,57.5802,112556
59,-0.7158,0.4956,0.4509,5.9847,-23.855,52.5267,112576
60,-0.7214,0.4954,0.4893,11.626,-19.8931,45.5115,112596
61,-0.6955,0.5332,0.4788,23.2519,-10.1756,37.8168,112616
62,-0.7272,0.5322,0.4956,25.8015,-0.7405,32.1756,112636
63,-0.7702,0.5872,0.512,26.458,-0.4656,24.855,112656
64,-0.7722,0.595,0.4744,18.6336,-3.8321,16.8473,112676
65,-0.778,0.5525,0.4497,11.9466,-4.9618,6.3664,112696
66,-0.7912,0.5588,0.4687,10.8473,-7.5954,-0.6641,112716
67,-0.7895,0.5623,0.4709,6.1221,-13.2443,-6.4962,112736
68,-0.7416,0.5833,0.4111,-5.1145,-15.0611,-7.4962,112756
69,-0.7285,0.5684,0.3831,-18.1832,-9.5191,-2.1145,112776
70,-0.7431,0.4629,0.4263,-17.0916,-4.9847,-1.5725,112796
71,-0.7206,0.4055,0.4644,10.1374,-3.3053,-7.8702,112816
72,-0.6611,0.4795,0.4355,37.7481,6.6489,-5.2443,112836
73,-0.6948,0.561,0.4143,42.9618,21.4886,1.5878,112856
74,-0.7953,0.5549,0.4358,31.2137,21.2901,4.9008,112876
75,-0.8124,0.5173,0.4358,27.9542,10.9847,1.7099,112896
76,-0.7585,0.5327,0.4026,34.5344,11.8473,2.5802,112916
77,-0.7961,0.5706,0.4216,38.2214,17.9084,6.9237,112936
78,-0.8596,0.5835,0.4514,38.4122,11.7481,7.1985,112956
79,-0.8391,0.6165,0.4253,35.2672,6.7481,5.6183,112976
80,-0.8005,0.6445,0.4036,27.6031,8.374,7.0153,112996
81,-0.8144,0.6382,0.4131,18.6947,10.7557,9.0458,113016
82,-0.8271,0.6436,0.4299,10.687,7.4122,7.3053,113036
83,-0.812,0.6575,0.4097,3.3053,4.3053,3.5649,113056
84,-0.811,0.6638,0.3728,-3.2901,4.1603,0.0992,113076
85,-0.8307,0.6553,0.3604,-9.4427,3.0534,-2.3053,113096
86,-0.8464,0.6191,0.3728,-11.7405,-1.6489,-4.542,113116
87,-0.821,0.5735,0.3811,-4.5725,-5.0305,-8.7634,113136
88,-0.809,0.6206,0.3857,4.687,1.0763,-6.4885,113156
89,-0.8383,0.6387,0.407,3.2977,2.0076,-3.5573,113176
90,-0.8325,0.6367,0.4109,-0.9924,0.2901,-4.145,113196
91,-0.8027,0.5984,0.4077,-4.8931,1.1374,-6.0916,113216
92,-0.7751,0.5645,0.4006,-4.7252,2.5115,-7.8015,113236
93,-0.8073,0.6187,0.3867,-9.313,3.374,-6.084,113256
94,-0.8251,0.5771,0.4009,-17.3588,-4.5115,-8.9618,113276
95,-0.8085,0.564,0.3726,-16.0534,-9.4733,-11.7786,113296
96,-0.8329,0.6116,0.3457,-17.7099,-9.9084,-12.9924,113316
97,-0.8044,0.5686,0.4565,-30.6794,-12.7023,-11.9008,113336
98,-0.7634,0.4995,0.4199,-31.5802,-9.6336,-9.1908,113356
99,-0.7878,0.5198,0.4106,-24.0382,-1.5954,-4.5344,113376
100,-0.8161,0.5061,0.4258,-16.9924,-1.2824,-3.3511,113396
101,-0.7787,0.4612,0.4001,1.3511,0.5954,1.3206,113416
102,-0.7582,0.4844,0.3882,25.2824,8.3588,6.3588,113436
103,-0.7853,0.5386,0.4226,39.4198,12.7557,8.0076,113456
104,-0.7995,0.5623,0.4275,40.2443,12.7252,7.9084,113476
105,-0.8141,0.5908,0.3923,34.8779,12.8092,8.084,113496
106,-0.8293,0.6238,0.3772,27.313,10.313,6.8855,113516
107,-0.8056,0.6309,0.3831,17.2137,7.6107,6.9695,113536
108,-0.7961,0.5852,0.3735,14.1221,6.1908,6.9466,113556
109,-0.7973,0.5815,0.3765,15.3053,7.6412,5.771,113576
110,-0.809,0.6096,0.4009,11.2977,7.2443,7.4198,113596
111,-0.8115,0.6189,0.3748,4.542,7.1985,9.687,113616
112,-0.8207,0.6057,0.3655,4.9924,6.0153,10.2672,113636
113,-0.821,0.6165,0.3735,7.3435,6.4504,8.3664,113656
114,-0.8366,0.6345,0.3862,6.084,3.3969,4.6641,113676
115,-0.8376,0.6707,0.3613,3.0611,1.4885,1.0229,113696
116,-0.8173,0.6484,0.3447,2.4733,-1.7786,-5.0916,113716
117,-0.811,0.6365,0.3735,5.4046,-1.4733,-10.0992,113736
118,-0.8054,0.6267,0.3816,5.0763,-2.229,-11.084,113756
119,-0.8127,0.6233,0.3694,2.0916,-3.1756,-11.2748,113776
120,-0.8127,0.6743,0.3518,-3.1298,-3.1221,-8.6947,113796
121,-0.8161,0.6465,0.3621,-11.4198,-5.6183,-8.7863,113816
122,-0.8068,0.6221,0.3752,-12.542,-4.8092,-9.2977,113836
123,-0.8015,0.5681,0.4424,-17.9466,-5.4046,-7.374,113856
124,-0.8227,0.5969,0.3501,-20.2977,-8.5878,-9.1374,113876
125,-0.8176,0.6321,0.4258,-34.8244,-12.4122,-13.8931,113896
126,-0.7993,0.5696,0.3916,-44.8931,-16.5114,-18.458,113916
127,-0.8029,0.5608,0.3999,-47.0382,-13.7252,-18.1832,113936
128,-0.809,0.5278,0.4326,-51.626,-13.687,-14.1756,113956
129,-0.7348,0.4038,0.405,-37.0305,-6.1756,-6.4809,113976
130,-0.7419,0.386,0.3562,-1.8015,8.3435,0.7939,113996
131,-0.8359,0.5063,0.3794,17.0382,11.2443,4.7176,114016
132,-0.8576,0.5811,0.4204,12.4504,2.8092,5.084,114036
133,-0.8107,0.595,0.4114,5.9084,1.9084,1.7328,114056
134,-0.8276,0.5693,0.4561,-5.5725,5.0382,0.2748,114076
135,-0.8532,0.5432,0.4646,-19.2595,-3.0916,-2.3053,114096
136,-0.8078,0.5308,0.428,-33.7557,-6.2443,-0.9771,114116
137,-0.8115,0.4893,0.4204,-38.229,-7.9618,-2.5038,114136
138,-0.79,0.459,0.408,-27.687,-6.9771,-5.2672,114156
139,-0.8102,0.4739,0.4294,-11.458,-5.6565,-6.0229,114176
140,-0.7863,0.5317,0.3997,-2.0611,-3.3817,-3.6794,114196
141,-0.8039,0.5288,0.3977,-2.5344,1.3588,-1.0382,114216
142,-0.8144,0.5422,0.4238,-5.4885,0.3969,-1.1832,114236
143,-0.8117,0.5337,0.417,-11.3664,-0.9847,-4.7023,114256
144,-0.8085,0.5288,0.4099,-22.374,-1.855,-8.7405,114276
145,-0.8415,0.5286,0.417,-31.7328,-7.3664,-12.8473,114296
146,-0.8176,0.5144,0.4265,-37.0534,-12.2061,-16.0153,114316
147,-0.7907,0.4961,0.4644,-38,-13.5649,-16.8321,114336
148,-0.7851,0.4819,0.4702,-43.5878,-11.2595,-13.6794,114356
149,-0.7792,0.4636,0.4626,-52.8626,-10.2824,-10.0992,114376
150,-0.7661,0.4055,0.4409,-57.3588,-8.3206,-6.7939,114396
151,-0.7819,0.3418,0.4382,-51.2748,-6.8473,-4.9695,114416
152,-0.7888,0.3157,0.3984,-33.4962,-6.4198,-5.1145,114436
153,-0.7729,0.375,0.4087,-17.5191,-4.9084,-3.458,114456
154,-0.788,0.4441,0.4614,-19.6718,-5.4275,0.8168,114476
155,-0.7975,0.4062,0.4946,-27.0382,-8.9237,-1.8855,114496
156,-0.7661,0.3845,0.4771,-26.542,-8.5191,-6.542,114516
157,-0.7846,0.3967,0.4666,-23.2901,-5.084,-7.6107,114536
158,-0.8122,0.4106,0.4827,-26.5191,-8.3588,-7.2061,114556
159,-0.8051,0.3813,0.4712,-31.1908,-12.7099,-8.4046,114576
160,-0.812,0.363,0.4524,-29.8702,-13.6489,-10.9618,114596
161,-0.8173,0.3701,0.4678,-29.2061,-14.6641,-11.8855,114616
162,-0.83,0.4104,0.4695,-36.2977,-20.5114,-11.4504,114636
163,-0.7656,0.3735,0.4766,-46.3969,-25.4809,-7.9771,114656
164,-0.726,0.3052,0.4897,-45.5115,-19.8244,-6.4885,114676
165,-0.7021,0.2517,0.4824,-37.9542,-14.5115,-3.2443,114696
166,-0.6828,0.2383,0.4346,-27.3359,-6.4275,1.5496,114716
167,-0.6953,0.2007,0.4443,-11.8321,1.8168,7.8015,114736
168,-0.7184,0.2007,0.4585,12.2672,6.6412,9.5267,114756
169,-0.7233,0.3074,0.4641,27.6412,10.4275,10.8397,114776
170,-0.7504,0.3552,0.4863,26.0687,12.0076,10.8779,114796
171,-0.7761,0.3967,0.4907,14.6031,8.8931,9.6641,114816
172,-0.8076,0.3909,0.4771,-3.0687,3.1069,5.1908,114836
173,-0.7861,0.3313,0.5042,-14.8321,-2.8626,1.1756,114856
174,-0.7385,0.2703,0.5063,-10.1908,-0.3435,-0.2214,114876
175,-0.7431,0.3049,0.4834,-0.6565,5.5038,1.313,114896
0,0.2684,0.0793,1.1167,1.771,-11.8015,6.1527,126916
1,0.1666,-0.0098,0.833,6.8473,5.2443,-1.7481,126936
2,0.1585,-0.0684,0.8401,9.3359,8.3282,-2.5725,126956
3,0.1575,-0.0618,0.8647,4.2824,4.4275,-3.6031,126976
4,0.1526,-0.0979,0.8599,3.1145,2.4733,-2.9008,126996
5,0.1409,-0.0806,0.875,-0.3206,-2.4885,-2.8092,127016
6,0.1556,-0.092,0.8762,-3.8244,-9.3206,-3.374,127036
7,0.1934,-0.0637,0.8037,6.2595,-3.6718,-1.5191,127056
8,0.2076,-0.0557,0.8179,12.1603,2.0992,6.313,127076
9,0.1634,-0.0715,0.9363,6.5344,2.4962,9.687,127096
10,0.1531,-0.1753,0.8901,-11.4504,-16.5267,-17.687,127116
11,0.2181,0.0227,0.8469,-18.542,7.6565,11.5649,127136
12,0.2552,-0.1621,0.9275,-25.3206,3.5496,7.9924,127156
13,0.2164,-0.0586,0.968,-28.8855,8.5496,11.8626,127176
14,0.241,-0.0166,0.9585,-47.9542,12.0153,19.1145,127196
15,0.3055,-0.0442,0.9536,-70.2977,24.6412,22.5344,127216
16,0.2933,-0.2444,0.9309,-77.2595,40.2901,25.9542,127236
17,0.2083,-0.2747,0.9294,-62.7176,52.6794,30.0534,127256
18,0.1522,-0.2427,0.9124,-69.5802,49.4504,44.0534,127276
19,0.1265,-0.3076,0.9124,-88.3206,46.5191,63.1527,127296
20,0.0689,-0.4392,0.9082,-111.5191,44.0076,85.5878,127316
21,0.0208,-0.5,0.7764,-118.0687,46.3435,104.0153,127336
22,-0.069,-0.5137,0.6838,-117.8092,48.626,119.9389,127356
23,-0.153,-0.5247,0.6555,-123.2214,42.8092,135.6718,127376
24,-0.196,-0.47,0.6101,-135.9008,31.7481,152.687,127396
25,-0.2328,-0.4385,0.4985,-149.2977,29.7176,170.8092,127416
26,-0.3251,-0.5063,0.4678,-143.6718,33.2214,178.7863,127436
27,-0.3884,-0.5029,0.4299,-122.5191,28.542,181.0611,127456
28,-0.373,-0.4172,0.3467,-105.3664,24.0534,189.2061,127476
29,-0.3915,-0.3008,0.2856,-99.9924,33.9542,196.6718,127496
30,-0.4946,-0.3013,0.28,-98.2748,36.5649,199.7099,127516
31,-0.5729,-0.2256,0.3311,-100.458,23.8397,194.0305,127536
32,-0.5837,-0.1526,0.2927,-113.8092,4.6336,191.771,127556
33,-0.5854,-0.106,0.1819,-132.4351,-7.1298,188.7557,127576
34,-0.6152,-0.0803,0.1453,-148.2748,-7.4962,183.3588,127596
35,-0.6926,-0.0999,0.178,-154.1985,-13.0305,168.7634,127616
36,-0.7516,-0.1245,0.1958,-138.6565,-32.1603,147.1908,127636
37,-0.727,-0.0937,0.1663,-115.6183,-57.5878,132.2901,127656
38,-0.6623,-0.0459,0.1584,-101.458,-72.0763,128.7023,127676
39,-0.6357,0.0339,0.2151,-91.2901,-66.1756,127.3969,127696
40,-0.6772,0.0559,0.2427,-82.7023,-63.6718,120.8397,127716
41,-0.704,0.0178,0.1943,-69.4198,-78.3664,109.6489,127736
42,-0.6723,0.1226,0.144,-64.542,-82.0763,101.145,127756
43,-0.6769,0.2473,0.1675,-66.9389,-71.2214,96.1221,127776
44,-0.7258,0.1768,0.1731,-73.1832,-64.2366,90.6031,127796
45,-0.7258,0.1028,0.1709,-67.9008,-68.2443,84.8779,127816
46,-0.6823,0.1318,0.2136,-60.1069,-66.2595,83.855,127836
47,-0.6596,0.1912,0.2539,-55.7099,-55.6641,80.7405,127856
48,-0.6747,0.2122,0.2515,-54.2214,-43.5191,75.8397,127876
49,-0.7165,0.2324,0.2742,-53.3053,-37.8855,68.7328,127896
50,-0.7407,0.2356,0.3049,-51.6412,-42.8473,61.6183,127916
51,-0.7267,0.2292,0.3555,-48.5954,-50.6412,54.0076,127936
52,-0.6935,0.2522,0.3633,-45.8626,-51.2672,47.855,127956
53,-0.6789,0.2546,0.3455,-43.4656,-46.4046,44.1985,127976
54,-0.6933,0.2317,0.3337,-34.8168,-39.3206,37.6489,127996
55,-0.7092,0.2639,0.408,-27.2443,-36.4962,33.0382,128016
56,-0.6982,0.3018,0.4492,-28.542,-36.4733,26.8931,128036
57,-0.6789,0.2966,0.4294,-28.3206,-28.1756,18.8702,128056
58,-0.6757,0.2881,0.4309,-31.6107,-19.6107,12.2672,128076
59,-0.6662,0.2322,0.4568,-23.8626,-5.9389,6.7863,128096
60,-0.6735,0.2524,0.4836,-26.9084,-0.2748,7.542,128116
61,-0.7341,0.2717,0.3992,-32.8473,8.6107,10.7481,128136
62,-0.8051,0.2002,0.3464,-27.1145,11.0229,11.2061,128156
63,-0.8242,0.1614,0.3918,-6.7252,6.687,0.771,128176
64,-0.7932,0.2002,0.3933,8.1527,9.2137,-0.9695,128196
65,-0.811,0.2383,0.4148,16.1908,15.916,1.9771,128216
66,-0.8652,0.2603,0.4521,19.5038,15.7252,3.458,128236
67,-0.894,0.3044,0.4055,16.6183,9.2366,5.5191,128256
68,-0.9047,0.3311,0.3889,4.0611,-1.3359,5.6565,128276
69,-0.8845,0.3188,0.4116,-9.5267,-9.9389,4.1603,128296
70,-0.8537,0.2551,0.4019,-9.8244,-15.3435,-0.0076,128316
71,-0.8434,0.2961,0.3638,3.5115,-11.4885,-0.4733,128336
72,-0.8452,0.3789,0.4243,5.1069,-12.1679,1.4656,128356
73,-0.7951,0.3831,0.4846,-17.8168,-15.9008,7.145,128376
74,-0.7983,0.2983,0.4319,-39.1221,-18.0916,12.0992,128396
75,-0.8063,0.2017,0.3979,-39.8473,-21.1832,8.7328,128416
76,-0.7895,0.1826,0.3745,-23.2977,-19.4886,2.0458,128436
77,-0.7582,0.2891,0.3125,-11.2977,-15.458,3.8092,128456
78,-0.7158,0.3516,0.4617,-21.5191,-13.2748,9.4198,128476
79,-0.6447,0.2222,0.4395,-20.6412,-10.6412,9.374,128496
80,-0.6208,0.1707,0.3423,4.916,0.3435,9.3893,128516
81,-0.6664,0.2227,0.3213,24.5496,14.7252,7.5267,128536
82,-0.7424,0.3057,0.342,24.8931,19.3359,11.2137,128556
83,-0.777,0.2793,0.3801,22.7863,13.1832,7.7481,128576
84,-0.7516,0.2466,0.3752,28.916,15.313,1.9084,128596
85,-0.7719,0.2988,0.4087,31.6794,24.626,3.6336,128616
86,-0.8351,0.3469,0.4438,22.855,28.1603,2.8702,128636
87,-0.8742,0.3599,0.3823,6.7176,21.7557,2.8015,128656
88,-0.9099,0.3359,0.3535,-3.3664,15.9695,0.7252,128676
89,-0.9335,0.3071,0.3826,-2.7023,6.6412,-3.3282,128696
90,-0.9059,0.3188,0.3804,5.0763,0.6947,-4.2061,128716
91,-0.8847,0.3816,0.4092,6.6412,-0.2061,-2.0076,128736
92,-0.8486,0.3843,0.4299,-5,-0.5496,-1.3435,128756
93,-0.8017,0.3274,0.3884,-10.3435,2.1145,-0.0763,128776
94,-0.8315,0.3271,0.3972,-10.1145,5.6031,0.8626,128796
95,-0.8271,0.3008,0.3721,-8.4427,-0.0153,-0.4809,128816
96,-0.8015,0.2927,0.3313,-0.7023,0.8015,1.1145,128836
97,-0.8063,0.3298,0.3149,1.2901,0.8244,1.8779,128856
98,-0.812,0.3787,0.3352,-12.2595,-1.6565,2.542,128876
99,-0.8317,0.3472,0.3726,-26.7252,-6.0305,-0.4504,128896
100,-0.8242,0.2874,0.3906,-31.4122,-10.8015,-4.0458,128916
101,-0.7968,0.2292,0.408,-23.3511,-9.7099,-5.0763,128936
102,-0.8117,0.2793,0.3376,-7.6489,-2.9695,-3.6107,128956
103,-0.8012,0.3218,0.3574,-4.4962,-2.7481,-2.0992,128976
104,-0.7619,0.2805,0.366,-8.7405,-1.4656,3.1908,128996
105,-0.7263,0.1853,0.3762,2.9924,6.7405,4.8779,129016
106,-0.7282,0.2319,0.3711,22.2061,16.2824,6.2061,129036
107,-0.798,0.3428,0.3914,20.3282,21.3588,6.8473,129056
108,-0.8649,0.3899,0.374,0.4962,15.145,5.687,129076
109,-0.8664,0.3213,0.3328,-15.6718,5.229,-0.7252,129096
110,-0.8107,0.2456,0.3779,-16.2519,6.6183,-7.084,129116
111,-0.7995,0.2471,0.376,-14.3435,12.9389,-4.7099,129136
112,-0.852,0.2502,0.3115,-15.9924,14.2824,-0.771,129156
113,-0.9035,0.2449,0.3257,-19.084,1.626,-1.458,129176
114,-0.8679,0.2373,0.3594,-14.3969,-7.9466,-5.084,129196
115,-0.8552,0.2568,0.3728,-5.7099,-6.4962,-7.3359,129216
116,-0.8766,0.3191,0.4214,-5.0916,-8.0611,-9.145,129236
117,-0.8447,0.3379,0.4202,-19.313,-11.1985,-8.7328,129256
118,-0.8229,0.3044,0.3879,-32.374,-11.7176,-7.6336,129276
119,-0.809,0.2537,0.366,-34.6336,-8.6718,-7.5344,129296
120,-0.8146,0.238,0.3254,-29.8702,-9.2214,-7.2061,129316
121,-0.7932,0.2227,0.3125,-22.9466,-9.7786,-8.4198,129336
122,-0.7856,0.2366,0.3076,-19.6794,-9.4656,-6.8626,129356
123,-0.7773,0.2319,0.3518,-21.2519,-10.313,-5.8244,129376
124,-0.7504,0.2085,0.3567,-22.0916,-9.771,-4.374,129396
125,-0.7446,0.1809,0.334,-16.2061,-5.8015,-3.9618,129416
126,-0.7668,0.1951,0.3147,-9.855,-0.0534,-2.9313,129436
127,-0.801,0.1719,0.3503,-3.4733,3.5496,-1.3969,129456
128,-0.8068,0.1445,0.3848,6.2824,7.1679,2.0611,129476
129,-0.8198,0.1938,0.3914,17.4809,9.6489,2.7252,129496
130,-0.8242,0.2383,0.3689,21.6107,12.8702,2.4122,129516
131,-0.8456,0.2585,0.3674,16.4886,12.6565,1.855,129536
132,-0.8517,0.2488,0.3596,11.9389,7.3435,-2.1603,129556
133,-0.832,0.2263,0.3914,7.8397,3.9313,-4.6412,129576
134,-0.8044,0.2383,0.3699,4.6565,3.4198,-4.4962,129596
135,-0.801,0.2476,0.3372,0.4885,4.374,-1.9389,129616
136,-0.7971,0.2312,0.3372,-0.7557,4.4733,-1.8244,129636
137,-0.7956,0.2393,0.3208,1.5649,6.4656,-2.8321,129656
138,-0.8115,0.2524,0.3052,0.542,8.084,-3.4962,129676
139,-0.8613,0.2764,0.2957,-5.9771,8.145,-1.2824,129696
140,-0.9064,0.2688,0.335,-11.9237,1.3969,-0.2061,129716
141,-0.8554,0.2429,0.3694,-12.084,-4.5038,0.1069,129736
142,-0.8173,0.2385,0.3635,-9.5802,-0.1603,2.8779,129756
143,-0.8124,0.2441,0.3887,-15.5802,0.7405,7.0229,129776
144,-0.7853,0.1807,0.3682,-22.5267,-3.0611,7.6947,129796
145,-0.8083,0.1958,0.3369,-14.3206,-2.5038,5.2443,129816
146,-0.8149,0.231,0.3406,-13.7939,-7.3359,0.5344,129836
147,-0.7853,0.2241,0.3188,-20.5649,-12.4885,-1.2366,129856
148,-0.7543,0.1775,0.3188,-22.3893,-8.4885,-0.7786,129876
149,-0.746,0.115,0.3433,-6.4656,0.1145,-1.2824,129896
150,-0.7707,0.1272,0.3757,15.1756,10.1069,1.2977,129916
151,-0.8051,0.1885,0.3784,29.3359,16.0229,1.9466,129936
152,-0.8454,0.2759,0.3474,20.4122,14.9313,2.4122,129956
153,-0.883,0.2969,0.3081,-0.6794,5.8168,-0.7557,129976
154,-0.8515,0.2283,0.291,-9.5649,0.2366,-4.5267,129996
155,-0.8056,0.1699,0.3254,-1.8626,3.4275,-4.0534,130016
156,-0.799,0.2034,0.3433,6.229,7.2672,0.5954,130036
157,-0.8337,0.2368,0.3442,3.4885,5.4046,4.0382,130056
158,-0.8229,0.2275,0.3257,0.8931,1.4733,1.916,130076
159,-0.8029,0.2341,0.3103,1.8626,2.8168,0.3053,130096
160,-0.8212,0.2209,0.323,2.229,3.7176,1.7786,130116
161,-0.8173,0.2266,0.3379,2.4809,1.0763,2.3359,130136
162,-0.7946,0.2205,0.3398,5,2.3435,1.1298,130156
163,-0.7944,0.2205,0.3381,8.1603,4.2901,-0.5344,130176
164,-0.7944,0.2285,0.3254,8.9313,3.4275,-1.0076,130196
165,-0.7573,0.2102,0.3032,8.9084,4.1908,-1.6183,130216
166,-0.7663,0.1995,0.3254,7.0534,6.8015,-1.5191,130236
167,-0.7875,0.1951,0.3318,3.8626,6.1298,-2.8702,130256
168,-0.8024,0.1946,0.3157,7.5954,7.1603,-3.5725,130276
169,-0.8442,0.2227,0.3044,8.4427,6.5496,-3.0534,130296
170,-0.9201,0.2515,0.3167,3.8168,3.6336,-2.8321,130316
171,-0.9413,0.2402,0.3447,1.3053,-3.7099,-3.9618,130336
172,-0.8918,0.2461,0.3552,4.3664,-5.8015,-4.0229,130356
173,-0.8596,0.2632,0.3618,5.9237,-1.2748,-3.3664,130376
174,-0.8613,0.271,0.3772,0.7863,-0.0458,-2.7099,130396
175,-0.8461,0.2561,0.3472,-8.6794,-3.313,-3.1374,130416
0,-0.122,-0.1829,0.9805,2.2519,-3.8855,-13.855,132756
1,0.0938,-0.2205,0.7344,2.2519,3.542,-10.5954,132776
2,0.1028,-0.2205,0.73,2.0382,0.9695,-7.2901,132796
3,0.1009,-0.2297,0.7229,0.2061,-2.1832,-4.3664,132816
4,0.1082,-0.2219,0.7187,-2.3817,-3.3359,-4.3359,132836
5,0.1148,-0.2112,0.7056,-4.0534,-2.6489,-2.7939,132856
6,0.1111,-0.2209,0.7156,-4.6641,-3.5115,0.1221,132876
7,0.1055,-0.2197,0.7285,-7.2672,-7.3359,5.0534,132896
8,0.1085,-0.21,0.7061,-9,-8.6183,11.6489,132916
9,0.127,-0.2908,0.7139,-7.0305,-7.5496,12.4351,132936
10,0.1541,-0.2998,0.585,1.626,-0.2061,9.0153,132956
11,0.1407,-0.2834,0.7219,11.2137,5.0611,-0.2672,132976
12,0.1016,-0.24,0.7439,12.6718,4.9847,-3.3511,132996
13,0.1002,0.0266,0.6877,10.5115,8.0382,17.9542,133016
14,0.0782,-0.2048,0.8206,-6.5267,-8.2595,22.0458,133036
15,0.1229,-0.1233,0.8604,-23.8473,-13.8321,16.2137,133056
16,0.1204,-0.199,0.8821,-51.8244,-24.626,20.5191,133076
17,0.1951,-0.3271,0.8193,-75.2977,-34.6947,27.2443,133096
18,0.2234,-0.4543,0.855,-65.9847,-20.0305,19.4122,133116
19,0.2208,-0.4036,0.8135,-48.3893,-1.8168,20.4198,133136
20,0.1942,-0.386,0.7654,-46.3282,7.5344,33.6489,133156
21,0.2198,-0.4939,0.5876,-59.5878,32.5802,47.771,133176
22,0.0635,-0.5415,0.6724,-62.2824,54.5954,57.458,133196
23,0.0372,-0.614,0.7375,-39.4122,59.0687,56.9466,133216
24,-0.0148,-0.5659,0.7119,-9.8321,68.4809,69.771,133236
25,-0.1232,-0.4272,0.7058,-24.0229,67.771,92.0153,133256
26,-0.1845,-0.3975,0.668,-67.8855,53.4504,107.9847,133276
27,-0.2324,-0.4827,0.6067,-105.1374,37.3817,120.9237,133296
28,-0.2431,-0.5757,0.5544,-102.9008,26.9008,125.7634,133316
29,-0.246,-0.5713,0.5193,-79.1298,21.3435,137.4046,133336
30,-0.2656,-0.5264,0.4927,-58.2519,21.6336,153.229,133356
31,-0.2783,-0.4712,0.3708,-47.5344,25.6183,165.2977,133376
32,-0.3718,-0.3643,0.3428,-54,26.7939,171.7634,133396
33,-0.467,-0.2798,0.3364,-77.916,14.8626,179.4351,133416
34,-0.5278,-0.2739,0.2913,-98.3053,-2.1069,182.2901,133436
35,-0.5292,-0.1921,0.165,-110.7863,-7.4122,185.229,133456
36,-0.5751,-0.1116,0.1172,-123.7099,-0.6947,187.6107,133476
37,-0.6689,-0.1267,0.208,-141.9695,-10.855,182.916,133496
38,-0.7416,-0.2034,0.2566,-143.2824,-28.0229,168.6718,133516
39,-0.7548,-0.1965,0.2249,-124.9847,-58.3588,152.4886,133536
40,-0.6694,-0.0564,0.1462,-103.2214,-69.9618,147.916,133556
41,-0.6328,0.001,0.1255,-94.4122,-58.7557,146.3969,133576
42,-0.6855,-0.0366,0.1541,-87.4809,-51.855,135.9618,133596
43,-0.7394,-0.0774,0.1904,-77.8397,-58.8015,119.7634,133616
44,-0.7136,-0.0425,0.1963,-66.5878,-71.7481,108.9771,133636
45,-0.6569,0.0596,0.1614,-58.3282,-71.2519,106.0687,133656
46,-0.6435,0.1118,0.1873,-60.1832,-60.3282,106.1069,133676
47,-0.6874,0.0935,0.2329,-64.0153,-55.0382,100.626,133696
48,-0.7043,0.0898,0.2441,-64.9084,-58.4733,89.3664,133716
49,-0.6984,0.0974,0.2751,-61.855,-63.687,79.1603,133736
50,-0.6667,0.1362,0.2468,-57.7634,-63.4122,73.313,133756
51,-0.6518,0.1829,0.2412,-57.7939,-60.5496,69.4351,133776
52,-0.6533,0.2375,0.248,-73.0382,-60.542,65.1374,133796
53,-0.6857,0.1677,0.2703,-98.3435,-63.5878,56.3893,133816
54,-0.7299,-0.0044,0.3203,-99.1221,-72.0611,39.6336,133836
55,-0.6591,0.0632,0.3494,-73.1985,-82.626,34.2824,133856
56,-0.5659,0.1487,0.373,-61.7863,-70.0916,40.6107,133876
57,-0.6196,0.2488,0.4268,-70.2672,-54.2519,46.5496,133896
58,-0.6933,0.209,0.4668,-90.3053,-59.3206,45.2672,133916
59,-0.6496,0.1245,0.4468,-83.0229,-63,38.1985,133936
60,-0.5556,0.145,0.3914,-55.2443,-47.0382,36.1145,133956
61,-0.5912,0.1782,0.4204,-34.1298,-20.2519,34.7328,133976
62,-0.7089,0.2295,0.5366,-30.7099,-15.542,29.2977,133996
63,-0.737,0.2432,0.5178,-43.8397,-24.8626,23.9313,134016
64,-0.6909,0.2061,0.4436,-51.4504,-28.3282,17.5878,134036
65,-0.6933,0.1265,0.4236,-48,-19.7557,10.9695,134056
66,-0.7226,0.1208,0.4341,-37.5649,-14.3282,4.4122,134076
67,-0.7526,0.1611,0.467,-31.145,-17.229,1.4198,134096
68,-0.7431,0.178,0.4646,-37.8321,-24.0305,2.5878,134116
69,-0.7087,0.1682,0.4885,-47,-26.313,5.6794,134136
70,-0.6389,0.0781,0.4658,-48.1603,-21.5114,2.8702,134156
71,-0.6213,0.0613,0.4011,-36.1221,-7.4122,0.6947,134176
72,-0.6887,0.0911,0.373,-27.9237,0.8473,2.0153,134196
73,-0.7477,0.0977,0.3799,-23.4198,-2.9084,3.6565,134216
74,-0.7297,0.0586,0.4248,-16.7557,-9.7252,2.626,134236
75,-0.6581,0.0159,0.4558,4.5878,-5.542,1.3817,134256
76,-0.6181,0.1335,0.468,23.4886,11.4962,4.5878,134276
77,-0.6913,0.2444,0.4741,15.1145,24.0076,9.8015,134296
78,-0.7756,0.2007,0.449,-5.0305,19.0992,9.2137,134316
79,-0.7834,0.0986,0.4199,-11.1298,8.5878,3.458,134336
80,-0.7375,0.0742,0.4038,-2.5191,6.1527,-1.7328,134356
81,-0.7397,0.1304,0.4116,4.8473,10.3893,1.2519,134376
82,-0.7761,0.1519,0.4353,7.1527,9.0305,3.2443,134396
83,-0.7612,0.1423,0.4419,9.6947,2.9695,3.1985,134416
84,-0.7072,0.0869,0.3936,13.2366,6.3969,4.313,134436
85,-0.7248,0.1389,0.3484,18.229,15.8473,7.1832,134456
86,-0.8015,0.1553,0.3447,16.0153,15.1603,11.2824,134476
87,-0.7995,0.1306,0.4058,14.3282,5.0687,15.1527,134496
88,-0.7443,0.1082,0.4509,18.0992,6.6412,19.687,134516
89,-0.7822,0.1726,0.4922,22.3359,10.2748,19.7023,134536
90,-0.7888,0.2209,0.4766,15.916,10.4733,15.855,134556
91,-0.81,0.2341,0.4905,6.3664,9.7863,12.5878,134576
92,-0.8063,0.2288,0.4453,-0.1145,7.2214,8.3282,134596
93,-0.7995,0.2241,0.4619,-5.4427,4.4962,2.916,134616
94,-0.7856,0.2024,0.4526,-10.7634,0.5802,-5.6183,134636
95,-0.7668,0.1975,0.4448,-17.4504,-5.2061,-11.7176,134656
96,-0.7592,0.2522,0.3564,-22.4809,-6.916,-13.5649,134676
97,-0.7382,0.1975,0.363,-26.5802,-7.1832,-11.2366,134696
98,-0.7324,0.1064,0.3542,-13.1603,-5.687,-8.5496,134716
99,-0.7648,0.1023,0.4028,3.4351,-1.9847,-4.5954,134736
100,-0.7651,0.1414,0.4414,9.4733,-1.7405,-2.0458,134756
101,-0.7639,0.1846,0.4421,3.1985,-1.5038,1.7023,134776
102,-0.7751,0.1982,0.4346,-6.0076,-0.8931,3.6794,134796
103,-0.8056,0.1821,0.387,-11.9847,-8.5573,-0.145,134816
104,-0.7814,0.1562,0.3831,-10.1832,-13.5496,-3.8244,134836
105,-0.7724,0.1399,0.4241,-5.8473,-15.313,-6.8015,134856
106,-0.7487,0.1562,0.4548,-5.6718,-14.8473,-6.5191,134876
107,-0.7282,0.2029,0.4634,-13.1221,-12.9618,-4.0611,134896
108,-0.7204,0.1621,0.467,-21.0763,-11.3053,-2.7634,134916
109,-0.7143,0.1301,0.4236,-17.374,-8.3206,-4.145,134936
110,-0.7243,0.1108,0.3933,-10.3588,-5.2595,-6.7328,134956
111,-0.749,0.1326,0.3997,-9.7939,-6.8244,-7.5954,134976
112,-0.7343,0.1509,0.4185,-17.2901,-9.1679,-4.0153,134996
113,-0.7158,0.1345,0.4541,-21.6489,-12.8626,-6.626,135016
114,-0.6931,0.0972,0.4292,-19.6336,-9.5191,-8.2137,135036
115,-0.6994,0.0637,0.4111,-11.0305,1.9542,-6.542,135056
116,-0.7275,0.0337,0.4226,2.0611,10.5267,-3.9924,135076
117,-0.7436,0.0325,0.4094,14.9847,14.1756,-1.4885,135096
118,-0.7519,0.0747,0.4084,23.7252,15.1069,0.6183,135116
119,-0.7524,0.1316,0.4119,23.4046,15.7023,0.8931,135136
120,-0.7634,0.1382,0.4067,18.9466,13.771,3.1756,135156
121,-0.7617,0.1367,0.4351,13.1145,10.2977,1.6641,135176
122,-0.7358,0.127,0.394,5.9695,6.5878,2.3053,135196
123,-0.737,0.1194,0.3325,2.2595,13.2137,2.9237,135216
124,-0.7744,0.1318,0.3855,2.2901,16.5725,5.2824,135236
125,-0.7551,0.0935,0.4346,4.7405,11.9008,6.6412,135256
126,-0.7297,0.1282,0.4121,10.4733,12.084,12.229,135276
127,-0.7585,0.1589,0.4067,12.4885,13.8321,15.1603,135296
128,-0.7731,0.1704,0.4138,10.7939,10.8702,15.4427,135316
129,-0.7761,0.145,0.4075,13.1603,9.855,15.0229,135336
130,-0.7702,0.1201,0.3936,23.1832,12.7634,11.9924,135356
131,-0.787,0.1646,0.4338,26,14.8855,14.771,135376
132,-0.819,0.2275,0.4656,12.3206,8.6031,15.9924,135396
133,-0.8198,0.2466,0.4497,-4.0534,2.6031,12.9847,135416
134,-0.7941,0.1941,0.4426,-7.2824,1.4046,8.084,135436
135,-0.7792,0.1799,0.4082,-0.9618,2.9084,2.9084,135456
136,-0.7785,0.1909,0.4055,-3.5954,1.0153,-0.3664,135476
137,-0.7817,0.2068,0.4165,-15.916,-4.1908,-1.8626,135496
138,-0.7722,0.1577,0.436,-20.2137,-8.9389,-7.1679,135516
139,-0.7477,0.1096,0.4075,0.1298,-9.9237,-15.4122,135536
140,-0.746,0.1484,0.3547,18.1603,-3.6489,-14.6565,135556
141,-0.7819,0.1968,0.3796,14.0687,-3.8473,-9.8779,135576
142,-0.7651,0.2012,0.3889,-0.3282,-7.7099,-3.3969,135596
143,-0.7438,0.1372,0.4028,-2.7786,-5.9695,-2.9237,135616
144,-0.7507,0.1499,0.4192,7.4656,0.3359,-2.4733,135636
145,-0.7585,0.197,0.4309,10.5267,3.5191,-0.5038,135656
146,-0.7563,0.2202,0.4092,4.2443,2.8931,1.8168,135676
147,-0.7844,0.2166,0.3911,-4.6641,0.3588,1.8397,135696
148,-0.7914,0.165,0.384,-10.5115,-5.4885,-2.9008,135716
149,-0.7917,0.1218,0.4058,-12.1221,-8.4809,-5.5115,135736
150,-0.77,0.1367,0.417,-8.084,-7.9466,-4.8015,135756
151,-0.7499,0.155,0.4209,-5.7023,-5.771,-1.5802,135776
152,-0.7575,0.1658,0.4124,-4.2214,-3.7176,0,135796
153,-0.7722,0.1624,0.416,-5.3817,-4.916,-0.4962,135816
154,-0.7682,0.1338,0.4009,-3.2061,-8.1527,-1.4198,135836
155,-0.7512,0.0867,0.3853,4.5878,-8.8931,-2.2977,135856
156,-0.7324,0.0862,0.3892,14.916,-3.5344,-1.3282,135876
157,-0.7516,0.1545,0.4094,22.0305,2.626,1.145,135896
158,-0.7687,0.2224,0.4705,17.8855,1.7863,2.7863,135916
159,-0.7309,0.2031,0.4819,7.5038,2.1069,4.8015,135936
160,-0.7333,0.1707,0.4392,5.8168,8.7023,4.4275,135956
161,-0.7563,0.1868,0.4194,6.9695,12.7176,1.6412,135976
162,-0.7787,0.2051,0.4294,4.313,13.1756,-0.1756,135996
163,-0.7951,0.1941,0.4412,-0.5115,8.916,-3.2061,136016
164,-0.7697,0.1985,0.4514,-3.1527,6.1298,-5.2901,136036
165,-0.7438,0.2073,0.4155,-10.8244,9.7786,-4.374,136056
166,-0.7719,0.1694,0.3865,-14.8092,12.9924,-4.0153,136076
167,-0.8173,0.1501,0.364,-12.9008,8.0076,-3.2443,136096
168,-0.8022,0.1252,0.3594,-7.3893,2.0916,-2.4122,136116
169,-0.7578,0.1326,0.3821,-1.6031,3.8321,1.7863,136136
170,-0.7453,0.145,0.3943,2.7328,8.6031,5.4656,136156
171,-0.7619,0.1626,0.4014,4.3435,10.374,5.8092,136176
172,-0.787,0.1763,0.377,2.5115,9.0687,5.7634,136196
173,-0.7917,0.1619,0.3809,1.5344,6.229,4.0229,136216
174,-0.7648,0.1438,0.3821,3.5573,6.1374,4.0229,136236
175,-0.7629,0.1702,0.3999,2.1145,7.542,5.4733,136256
0,0.2225,-0.146,0.7134,7.0305,6.1145,-7.1527,138896
1,0.1282,-0.2014,0.7449,4.7252,4.7176,-10.145,138916
2,0.1238,-0.1956,0.7603,2.626,2.2748,-8.8473,138936
3,0.1334,-0.186,0.7563,0.2443,0.7786,-6.5115,138956
4,0.1312,-0.1743,0.7468,-0.313,-0.4962,-1.8244,138976
5,0.136,-0.1702,0.7478,-3.6107,-1.6107,5.3359,138996
6,0.1317,-0.208,0.7725,-8.084,-5.3359,6.9695,139016
7,0.1317,-0.1919,0.7627,-10.8931,-9.9771,8.6794,139036
8,0.1375,-0.2683,0.7898,-12.0992,-17.3664,8.3282,139056
9,0.253,-0.5603,0.4521,-1.4885,-11.9618,5.3817,139076
10,0.2061,-0.2419,0.7766,7.1832,-7.374,8.4809,139096
11,0.0984,0.2708,0.7014,4.084,-0.9924,31.9008,139116
12,0.0406,-0.0581,0.7131,-37.7328,-9.1985,87.0916,139136
13,0.1068,-0.4873,0.9023,-54.1069,-31.3435,22.2443,139156
14,0.2945,-0.3809,0.842,-51.5649,-14.3969,8.542,139176
15,0.1739,-0.2141,0.7864,-47.7557,-7.0305,22.4504,139196
16,0.1795,-0.2407,0.6936,-49.1221,6.4046,33.9313,139216
17,0.1439,-0.3274,0.7678,-54.4656,21.2901,21.2214,139236
18,0.1089,-0.3782,0.854,-63.1527,23.1908,21.9847,139256
19,0.159,-0.5251,0.8237,-51.9771,28.8168,26.4886,139276
20,0.1536,-0.512,0.718,-31.8931,45.3969,32.7405,139296
21,0.0384,-0.4282,0.6763,-31.6947,54.5725,42.7481,139316
22,-0.0515,-0.4324,0.7161,-45.4504,53.4122,58.1679,139336
23,-0.0458,-0.5977,0.7222,-44.1908,47.9542,67.4657,139356
24,-0.041,-0.553,0.6677,-37.1603,53.7328,81.9313,139376
25,-0.1271,-0.4492,0.6218,-55.1374,55.2595,100.5038,139396
26,-0.1957,-0.4316,0.5896,-99.0305,46.1985,118.2824,139416
27,-0.2499,-0.51,0.5098,-133.6565,34.626,133.6031,139436
28,-0.2856,-0.5542,0.4331,-142.626,24.0229,142.626,139456
29,-0.301,-0.5198,0.3352,-136.8244,16.3282,152.9847,139476
30,-0.3417,-0.4661,0.2747,-131.5878,8.9542,166.1069,139496
31,-0.3928,-0.4248,0.2415,-128.0229,1.2748,179.7634,139516
32,-0.4389,-0.4509,0.1892,-129.5343,-7.2366,178.6488,139536
33,-0.4719,-0.3931,0.1157,-132.1221,-14.1069,166.9389,139556
34,-0.537,-0.3411,0.1099,-122.542,-21.3282,159.0763,139576
35,-0.5717,-0.2991,0.1272,-108.374,-34.9847,151.229,139596
36,-0.5651,-0.2412,0.1274,-98.6031,-48.0305,151.1069,139616
37,-0.5715,-0.2214,0.1191,-85.3588,-54.2824,147.6412,139636
38,-0.5632,-0.1787,0.0637,-70.2977,-55.4351,141.6947,139656
39,-0.571,-0.1592,0.0693,-62.5573,-53.1374,133.3435,139676
40,-0.5964,-0.1284,0.1218,-57.1908,-52.2443,122.458,139696
41,-0.6166,-0.0928,0.1487,-52.5496,-55.2061,116.5802,139716
42,-0.6264,-0.0554,0.156,-47.5344,-53.1985,110.3511,139736
43,-0.6462,0.0044,0.1431,-48.3206,-50.5954,107.6031,139756
44,-0.6667,0.02,0.1567,-54.4962,-50.1221,106.0153,139776
45,-0.6909,-0.0032,0.1858,-58.542,-52.5267,101.3511,139796
46,-0.6789,-0.0049,0.2002,-59.6031,-57.855,95.7863,139816
47,-0.674,0.0493,0.189,-63.0458,-58.687,92.5802,139836
48,-0.6909,0.0845,0.1973,-68.7557,-55.9618,87.6412,139856
49,-0.7263,0.0942,0.2166,-72.9389,-57.9466,79.1908,139876
50,-0.7302,0.104,0.2156,-73.4046,-64.4733,70.5802,139896
51,-0.6916,0.0801,0.2229,-70.4122,-66.8473,62.8015,139916
52,-0.6813,0.0913,0.2493,-63.084,-60.9313,55.2061,139936
53,-0.7018,0.1799,0.2673,-64.0153,-56.9542,50.5115,139956
54,-0.7285,0.2456,0.282,-77.0458,-58.1527,46.374,139976
55,-0.7524,0.2017,0.2964,-93.145,-63.9389,41.5573,139996
56,-0.7358,0.1392,0.3342,-99.1603,-69.6718,36.2214,140016
57,-0.7048,0.1726,0.3394,-98.6107,-67.3817,34.9008,140036
58,-0.7194,0.2148,0.3083,-100.2443,-58.6183,33.0305,140056
59,-0.7487,0.2026,0.3394,-109.8779,-58.7405,29.3511,140076
60,-0.7443,0.1394,0.3625,-114.6641,-62.4962,23.6489,140096
61,-0.6948,0.1035,0.3325,-109.9389,-59.4962,19.3588,140116
62,-0.7021,0.115,0.3276,-102.2519,-49.8931,15.3664,140136
63,-0.7341,0.1763,0.3616,-102.1069,-46.4809,12.9618,140156
64,-0.7341,0.1509,0.4023,-110.5115,-53.6336,10.4198,140176
65,-0.686,0.0684,0.3723,-113.7863,-54.2977,8.313,140196
66,-0.6552,0.0098,0.3086,-103.7786,-44.1145,6.145,140216
67,-0.6591,-0.009,0.2927,-86.8855,-30.0382,3.9924,140236
68,-0.704,0.0547,0.3542,-86.6947,-20.7405,4.5191,140256
69,-0.7451,0.0798,0.4021,-104.3206,-29.2901,5.5191,140276
70,-0.7084,-0.0166,0.3188,-106.0229,-36.9771,3.7557,140296
71,-0.655,-0.0581,0.2627,-96.8168,-31.084,1.8473,140316
72,-0.6567,-0.0359,0.2524,-88.1985,-19.458,1.2214,140336
73,-0.6762,-0.0884,0.2832,-79.5649,-15.1374,-1.0076,140356
74,-0.6669,-0.1553,0.2891,-55.2901,-12.9695,-3.2137,140376
75,-0.6472,-0.114,0.2468,-34.8321,-6.2137,0.2519,140396
76,-0.6503,-0.0386,0.3149,-32.145,1.5954,3.7252,140416
77,-0.6664,-0.0454,0.3037,-30.8397,5.0687,2.9771,140436
78,-0.7055,-0.0769,0.2458,-18.4046,9.4275,2.3588,140456
79,-0.7282,-0.0972,0.2366,2.3206,14.0153,-1.313,140476
80,-0.7331,-0.082,0.2947,14.2443,14.6718,-1.9237,140496
81,-0.7292,-0.0605,0.3149,15.8626,14.6031,0.6794,140516
82,-0.7424,-0.0129,0.3171,10.6031,14.7328,2.9313,140536
83,-0.7661,-0.0164,0.292,5.6183,14.1527,-0.1832,140556
84,-0.7741,-0.0403,0.2683,8.6565,13.0992,-3.1145,140576
85,-0.7592,-0.0737,0.2502,16.0458,11.8702,-5.0916,140596
86,-0.7663,-0.0491,0.2695,17.2672,11.6031,-1.9618,140616
87,-0.8034,0.0088,0.303,4.855,7.7481,2.5649,140636
88,-0.8146,-0.0088,0.3003,-8.6565,-3.0763,2.0611,140656
89,-0.7729,-0.0439,0.2961,-10.9313,-8.2977,-0.4046,140676
90,-0.7402,-0.05,0.2681,-8.6718,-5.5954,-0.9847,140696
91,-0.7509,-0.0315,0.2791,-8.1527,-5.1908,-0.4122,140716
92,-0.7805,-0.0017,0.3159,-14.7023,-12.2824,0.4885,140736
93,-0.7656,-0.0325,0.2788,-20.9313,-20.0687,-1.6412,140756
94,-0.7382,-0.0227,0.2778,-23.0458,-16.6183,-2.0687,140776
95,-0.7314,0.0156,0.312,-29.6565,-14.4427,-0.0916,140796
96,-0.7363,0.0176,0.3955,-40.8168,-21.0153,-1.8626,140816
97,-0.7116,-0.064,0.3335,-45.3664,-26.3435,-4.5802,140836
98,-0.6857,-0.0764,0.2139,-35.771,-23.3664,-3.5038,140856
99,-0.6852,-0.0806,0.1819,-26.7252,-16.4733,-3.9313,140876
100,-0.6909,-0.0554,0.1929,-21.0153,-11.6412,-4.8244,140896
101,-0.6948,-0.042,0.2187,-20.0458,-8.2824,-3.2595,140916
102,-0.7324,-0.0251,0.2588,-23.4504,-9.3511,-2.1298,140936
103,-0.747,-0.0627,0.2468,-25.0992,-17.5038,-2.3664,140956
104,-0.6887,-0.0764,0.2397,-23.7328,-23.084,-1.5802,140976
105,-0.6367,-0.1162,0.2148,-20.4504,-15.9847,0.2748,140996
106,-0.6381,-0.1616,0.1707,-7.7099,-1.7176,1.0382,141016
107,-0.6694,-0.1946,0.1609,12.1908,10.7099,0.9695,141036
108,-0.6777,-0.189,0.2056,28.9466,17.0763,4.0611,141056
109,-0.6691,-0.1265,0.2634,34.4656,21.2595,8.7405,141076
110,-0.6855,-0.0547,0.2832,30.1221,26.1908,11.4427,141096
111,-0.7233,-0.0354,0.2334,25.4962,31.1374,8.2824,141116
112,-0.7504,-0.0171,0.219,22.5878,31.1603,1.2748,141136
113,-0.7682,-0.0308,0.2324,17.4886,25.3053,-2.3969,141156
114,-0.7558,-0.0537,0.2874,10.3206,11.9618,-3.8931,141176
115,-0.7231,-0.0723,0.2954,4.4656,4.9618,-2.9618,141196
116,-0.7009,-0.0798,0.2795,7.5649,7.7557,-3.3588,141216
117,-0.7241,-0.0847,0.2566,15.5038,15.0229,-3.6641,141236
118,-0.7675,-0.0356,0.282,17.4046,15.6336,-3.5954,141256
119,-0.7878,-0.0056,0.2717,9.687,8.313,-3.0763,141276
120,-0.7971,-0.0168,0.2837,0.5573,1.7023,-3.4275,141296
121,-0.8036,-0.03,0.2979,-2.2748,-6.7634,-6.9389,141316
122,-0.7597,-0.022,0.3284,-4.6565,-12.4962,-6.9924,141336
123,-0.7326,-0.0173,0.3767,-7.1603,-17.9466,-4.2595,141356
124,-0.715,0.0002,0.3083,-11.2061,-22.3282,-0.2672,141376
125,-0.7184,-0.0068,0.2432,-22.458,-24.2977,2.3282,141396
126,-0.7265,-0.0513,0.1882,-25.0153,-25.5573,3.7405,141416
127,-0.7119,-0.0642,0.1628,-21.2061,-25.3893,4.626,141436
128,-0.5546,-0.0718,0.0354,-11.8626,8.229,-1.4122,141456
129,-0.7131,-0.0696,0.2378,-11.4962,33.6565,-7.2595,141476
130,-0.8466,-0.0312,0.3875,-26.8015,16.4504,-8.7863,141496
131,-0.8251,-0.0537,0.3582,-35.3206,-19.3053,-6.7634,141516
132,-0.7106,-0.1218,0.2231,-30.8626,-32.626,-0.8092,141536
133,-0.6318,-0.1414,0.1465,-21.8702,-20.1679,1.229,141556
134,-0.653,-0.1375,0.1797,-16.6183,-6.8473,-0.6107,141576
135,-0.674,-0.1436,0.2083,-13.5878,-6.3893,-1.0153,141596
136,-0.6335,-0.1572,0.198,-3.7634,-1.8855,0.9313,141616
137,-0.6174,-0.1824,0.2295,9.2443,13.0992,4.6412,141636
138,-0.6552,-0.1692,0.1975,24.0153,24.5191,4.8855,141656
139,-0.6962,-0.0728,0.1741,29.0458,30.5802,6.145,141676
140,-0.7363,-0.0288,0.1633,23.4046,33.1985,5.2824,141696
141,-0.7651,-0.0269,0.228,12.1679,28.3282,2.8779,141716
142,-0.7556,-0.0674,0.283,3.7481,17.2595,-0.1527,141736
143,-0.717,-0.0703,0.2837,1.542,14.1527,-0.4427,141756
144,-0.7097,-0.0972,0.2214,3.8702,16.4427,0.9313,141776
145,-0.7119,-0.0994,0.1831,8.5038,18.0534,1.7634,141796
146,-0.7189,-0.0994,0.1772,9.0229,17.5878,2.8168,141816
147,-0.7341,-0.0916,0.2092,9.5725,15.229,3.2672,141836
148,-0.7448,-0.0798,0.1941,11.0305,11.8321,3.2901,141856
149,-0.7565,-0.0662,0.1824,15.4809,11.5954,3.9924,141876
150,-0.7499,-0.0645,0.2183,13.4962,10.7557,4.1069,141896
151,-0.7453,-0.0701,0.229,13.0992,9.8931,4.5267,141916
152,-0.7451,-0.0635,0.2041,14.3664,10.9847,3.9313,141936
153,-0.7507,-0.0627,0.1912,16.8779,11.0534,3.7863,141956
154,-0.7578,-0.0654,0.1917,16.1374,10.3435,3.9542,141976
155,-0.7624,-0.0728,0.2031,16.1985,8.0611,3.5954,141996
156,-0.759,-0.0601,0.2083,17.8397,6.9237,3.3511,142016
157,-0.747,-0.0378,0.2041,17.1374,6.5725,3.1908,142036
158,-0.7485,-0.0447,0.1936,17.9389,7.7099,2.5191,142056
159,-0.7602,-0.021,0.1748,16.7634,6.8244,2.1756,142076
160,-0.7758,0.0232,0.1951,13.8931,2.8015,2.145,142096
161,-0.8044,0.0488,0.2729,9.5725,-8.2748,-3.2595,142116
162,-0.7841,0.0476,0.3459,-0.8321,-16.1908,-10.3588,142136
163,-0.7497,-0.0173,0.2568,-17.3664,-14.8473,-9.1298,142156
164,-0.7648,-0.0603,0.2051,-20.8473,-9.0229,-5.5954,142176
165,-0.7751,-0.0664,0.2144,-18.3206,-11.4427,-4.1221,142196
166,-0.7575,-0.083,0.2263,-16.0916,-15.145,-1.2366,142216
167,-0.7192,-0.0872,0.1995,-11.1832,-13.4351,3.2366,142236
168,-0.7131,-0.0461,0.2144,-10.0382,-5.542,5.8931,142256
169,-0.7614,-0.0464,0.2185,-14.7557,-8.1374,5.4962,142276
170,-0.767,-0.0234,0.2302,-21.4656,-18.7557,2.6031,142296
171,-0.6786,-0.0581,0.1479,-27.2443,-19.2824,-1.0687,142316
172,-0.7287,-0.1147,0.1868,-26.1298,-2.5649,-4.1298,142336
173,-0.7724,-0.0703,0.2217,-19.0611,-9.542,-4.1298,142356
174,-0.736,-0.051,0.1931,-17.374,-17.1298,-3.313,142376
175,-0.7143,-0.0842,0.1882,-18.5344,-21.5649,-3.5725,142396
0,-0.4745,-0.5208,0.8892,4.5878,-1.8244,-9.9618,144736
1,0.0215,-0.2795,0.688,5.6565,3.1603,-4.0763,144756
2,0.0538,-0.2795,0.6812,3.229,0.2443,-3.8855,144776
3,0.0447,-0.2913,0.6775,4.8244,0.2748,-7.3282,144796
4,0.0543,-0.2856,0.6875,2.8168,-0.0916,-10.5496,144816
5,0.0474,-0.3091,0.7205,0.7328,-4.1832,-12.2061,144836
6,0.0714,-0.2778,0.7124,5.1832,-3.7176,-6.4885,144856
7,0.0953,-0.2893,0.7473,6.6489,-8.0229,-4.2443,144876
8,0.3026,-0.2883,0.6045,7.6336,1.6031,11.9466,144896
9,-0.1257,-0.3013,0.9114,-8.4809,-11.0687,13.9847,144916
10,-0.058,-0.4087,1.0037,-24.1832,-37.6565,11.0611,144936
11,0.1336,-0.4067,0.9956,-16.687,-21.6489,24.0611,144956
12,0.0706,-0.4702,0.8494,0.5496,14.1756,38.5954,144976
13,0.0333,-0.179,0.7305,-14.5115,40.855,23.6794,144996
14,-0.0529,-0.1174,0.8767,-99.542,42.8015,31.6107,145016
15,-0.0075,-0.52,0.9075,-157.8015,31.9542,26.1145,145036
16,0.0938,-0.6838,0.7539,-132.145,48.1603,28.0992,145056
17,-0.0356,-0.668,0.8391,-88.9389,69.6641,57.0763,145076
18,-0.0866,-0.6462,0.7522,-63.5573,59.1069,78.0534,145096
19,-0.093,-0.6663,0.6306,-67.4198,48.7328,104.542,145116
20,-0.1376,-0.5591,0.4617,-77.8321,48.1756,129.4046,145136
21,-0.2338,-0.5403,0.4023,-99.7176,42.0458,148.5267,145156
22,-0.2868,-0.5552,0.3423,-124.3969,26.2824,160.7405,145176
23,-0.311,-0.5081,0.2424,-140.687,16.687,172.1603,145196
24,-0.3561,-0.4365,0.178,-152.9237,13.0687,187.8168,145216
25,-0.393,-0.4048,0.1072,-162.2595,11.4275,196.8779,145236
26,-0.4467,-0.3684,0.0295,-170.6641,5.1221,191.626,145256
27,-0.519,-0.3005,-0.0002,-183.3817,-6.8244,174.1221,145276
28,-0.6213,-0.2224,0.0032,-198.313,-34.0382,160.6641,145296
29,-0.7175,-0.1399,-0.0015,-205.4427,-73.4885,153.9084,145316
30,-0.7675,-0.1082,-0.0024,-211.1527,-117.2901,147.7252,145336
31,-0.7382,-0.1084,-0.0713,-210.0458,-152.8321,137.1985,145356
32,-0.6623,-0.1082,-0.1362,-194.2214,-166.145,121.0305,145376
33,-0.6027,-0.0618,-0.1421,-175.687,-160.9084,104.9771,145396
34,-0.6057,-0.0125,-0.0847,-166.2443,-151.7634,89.4885,145416
35,-0.6362,0.0256,-0.0596,-163.9695,-148.6031,74.626,145436
36,-0.6445,-0.0076,-0.0522,-157.1221,-152.8473,61.9466,145456
37,-0.6196,-0.0332,-0.0562,-144.229,-153.5343,53.8473,145476
38,-0.5717,-0.0276,-0.0396,-126.6794,-141.5573,51.3893,145496
39,-0.5617,0.0117,0.062,-115.0992,-128.916,50.6031,145516
40,-0.5671,0.0088,0.0845,-108.4733,-119.5267,48.9542,145536
41,-0.5629,-0.0447,0.0703,-98.9847,-111.3588,43,145556
42,-0.5663,-0.0295,0.0793,-85.3969,-97.6565,36.374,145576
43,-0.5961,0.0134,0.1667,-80.4427,-83.9847,30.8931,145596
44,-0.632,0.0635,0.2253,-89.5878,-82.6336,25.626,145616
45,-0.6269,0.0613,0.187,-100.1603,-84.6641,22.4351,145636
46,-0.6193,-0.0444,0.156,-101.4885,-81.4504,17.8321,145656
47,-0.6108,-0.1392,0.1555,-87.3969,-72.6031,11.6718,145676
48,-0.6003,-0.1555,0.1814,-67.9771,-61.6794,7.8321,145696
49,-0.6066,-0.1165,0.2427,-56.626,-53.1527,6.4275,145716
50,-0.6328,-0.073,0.2625,-57.7405,-49.0229,10.2443,145736
51,-0.6638,-0.071,0.2183,-60.0229,-50.6107,12.9847,145756
52,-0.6535,-0.1416,0.1987,-50.7634,-49.4885,16.542,145776
53,-0.6398,-0.1665,0.2114,-33.3282,-39.8015,20.4886,145796
54,-0.675,-0.0793,0.2837,-22.9542,-29.8855,22.626,145816
55,-0.7136,-0.085,0.3044,-13.9084,-32.0382,21.374,145836
56,-0.7043,-0.0908,0.2412,-2.8702,-33.1145,15.687,145856
57,-0.6796,-0.0632,0.229,5.3588,-27.8168,15.6565,145876
58,-0.6389,-0.0637,0.2505,15.2366,-19.3282,13.7099,145896
59,-0.664,-0.0188,0.3792,23.542,2.3359,6.9466,145916
60,-0.7319,0.062,0.4209,9.9008,0.8702,2.2901,145936
61,-0.7111,0.0596,0.2913,-10.9847,-7.8321,-0.4885,145956
62,-0.6855,-0.0645,0.199,-14.3893,-7.1832,-4.6489,145976
63,-0.7036,-0.0986,0.2107,-0.8779,-4.0305,-9.3511,145996
64,-0.6996,0.0071,0.3416,2.6107,-5,-4.0305,146016
65,-0.6528,-0.0381,0.4077,-12.0382,-6.2595,4.313,146036
66,-0.6166,-0.1057,0.3411,-6.6947,6.1069,7.7328,146056
67,-0.6557,-0.1213,0.2117,7.6107,20.7252,7.1679,146076
68,-0.7314,-0.0706,0.2004,20.3969,23.0153,2.0534,146096
69,-0.7429,-0.0156,0.2227,23.1221,16.4427,2.5954,146116
70,-0.7189,0.0044,0.2876,14.2595,7.6794,4.7405,146136
71,-0.7106,-0.02,0.2988,7.7863,6.0916,5.0611,146156
72,-0.739,-0.0432,0.292,7.1679,7.3282,3.2366,146176
73,-0.7485,-0.0432,0.2534,11.2748,4.4885,1.7405,146196
74,-0.7343,-0.0249,0.239,12.2977,7.374,2.0305,146216
75,-0.7634,-0.0117,0.2727,10.2061,7.3969,4.4046,146236
76,-0.7753,0.0061,0.3223,10.0534,-0.8244,4.0916,146256
77,-0.7516,0.0022,0.2969,3.542,-4.0076,3.9771,146276
78,-0.7426,0.021,0.2903,-0.8092,-0.9847,1.7099,146296
79,-0.7643,0.0134,0.2874,-5.8015,-1.5115,-0.9389,146316
80,-0.7592,0.0095,0.3142,-11.9542,-6.6107,-1.9542,146336
81,-0.7409,-0.009,0.311,-14.0992,-8.6336,-1.8702,146356
82,-0.7463,-0.0083,0.2939,-13.4198,-5.1832,-1.458,146376
83,-0.7717,0.0161,0.2996,-14.8092,-5.7328,-1.1527,146396
84,-0.7553,0.0188,0.2703,-19.4656,-8.4504,-1.458,146416
85,-0.7402,0.0002,0.2561,-18.6183,-7.8702,-0.7786,146436
86,-0.7429,-0.0144,0.2554,-14.4351,-7.4046,-0.5115,146456
87,-0.7512,-0.0203,0.2642,-12.2519,-7.4198,-0.7176,146476
88,-0.7343,-0.0261,0.2717,-16.2977,-11.8015,-1.1069,146496
89,-0.6874,-0.0681,0.2639,-15.687,-11.916,-1.084,146516
90,-0.666,-0.0901,0.2107,-3.5115,-1.0076,0.3817,146536
91,-0.7001,-0.1228,0.2637,16.6641,9.5725,4.687,146556
92,-0.7143,-0.1428,0.2942,36.3511,14.458,8.8626,146576
93,-0.7404,-0.001,0.311,32.7481,16.6641,11.3588,146596
94,-0.7822,0.0396,0.291,18.8244,12.6031,7.5038,146616
95,-0.7756,0.0337,0.2605,13.3817,8.2595,1.7939,146636
96,-0.7477,0.0149,0.2568,10.9466,9.0534,-1.3588,146656
97,-0.7541,-0.012,0.2869,8.3893,8.916,-0.5802,146676
98,-0.7485,-0.0049,0.2676,3.8702,5.7634,3.0458,146696
99,-0.7595,0.0134,0.2385,1.1679,5.458,4.5115,146716
100,-0.7834,0.0134,0.2617,1.9008,2.9695,4.229,146736
101,-0.7897,0.0083,0.2925,-0.2748,-1.145,4.3588,146756
102,-0.7712,0.0044,0.3201,-4.9466,-4.5191,4.5573,146776
103,-0.7536,0.0076,0.3145,-10.313,-4.7252,4.2443,146796
104,-0.7656,-0.0056,0.3108,-12.3969,-3.8244,2.3511,146816
105,-0.7629,-0.0007,0.3169,-12.0305,-7.2901,-0.3664,146836
106,-0.7368,-0.0117,0.3296,-9.145,-9.7099,-3.1756,146856
107,-0.7304,0.0044,0.3223,-11.2443,-4.8779,-2.1985,146876
108,-0.7441,0.0029,0.2949,-14.9313,-2.3511,-2.5191,146896
109,-0.7543,-0.0081,0.2646,-18.5344,-3.3969,-3.2672,146916
110,-0.7553,-0.0139,0.2405,-18.5802,-6,-3.1298,146936
111,-0.7426,-0.0305,0.2512,-15.5496,-9.8473,-1.5267,146956
112,-0.7309,-0.0381,0.2427,-12.458,-10.1527,-1.1756,146976
113,-0.7336,-0.0234,0.2866,-11.6641,-8.2366,-1.0153,146996
114,-0.7297,-0.0188,0.2742,-15.5038,-7.7023,-1.1298,147016
115,-0.7148,-0.0393,0.2654,-19.2061,-7.3282,-1.2366,147036
116,-0.7109,-0.0718,0.2434,-13.4504,-3.9847,-0.855,147056
117,-0.7082,-0.0662,0.2307,-3.9008,1.2824,0.9466,147076
118,-0.7206,-0.0659,0.2334,7.0229,7.3359,3.7252,147096
119,-0.7231,-0.1001,0.2571,23.0611,12.4046,5.916,147116
120,-0.7065,-0.0798,0.2942,35.1756,18.1832,6.9313,147136
121,-0.7424,0.0264,0.2683,29.9237,22.8779,7.7634,147156
122,-0.7966,0.0464,0.2571,15.7786,18.1908,4.4962,147176
123,-0.7988,0.0139,0.2451,9.8321,11.7023,0.6107,147196
124,-0.7585,-0.0105,0.269,11.3359,9.6107,-0.7863,147216
125,-0.7536,-0.0217,0.2759,11.5878,10.1298,1.5496,147236
126,-0.7643,-0.0188,0.2734,12.0992,8.8092,3.3435,147256
127,-0.7558,-0.0105,0.2683,12.7405,7.7557,3.3588,147276
128,-0.7548,0.0056,0.2595,13.5191,8.6183,3.7176,147296
129,-0.769,0.0354,0.2661,10.229,6.9084,4.7863,147316
130,-0.7702,0.042,0.2688,2.8092,1.0076,3.3206,147336
131,-0.7695,0.0366,0.2935,-4.7481,-2.9008,-0.313,147356
132,-0.7634,0.0227,0.3164,-8.2061,-7.084,-5.8321,147376
133,-0.7431,0.0247,0.3328,-10.5267,-9.374,-8.6794,147396
134,-0.7553,0.0083,0.2805,-13.8931,-4.6718,-5.3511,147416
135,-0.7824,0,0.2412,-13.0992,-5.7939,-3,147436
136,-0.7858,0.0056,0.2227,-13.0534,-8.9542,-2.0458,147456
137,-0.7668,-0.0254,0.2769,-11.7786,-11.4962,-3.0763,147476
138,-0.7358,-0.0474,0.2734,-10.5802,-13.0305,-2.9618,147496
139,-0.7233,-0.031,0.261,-9.7939,-7.7099,-2.6565,147516
140,-0.7426,-0.02,0.2561,-11.229,-5.9924,-1.5725,147536
141,-0.7514,-0.0205,0.2434,-14.1374,-10.313,-1.9771,147556
142,-0.7153,-0.0281,0.2217,-15.2519,-11.9542,1.4962,147576
143,-0.6923,-0.0771,0.2537,-7.5573,-5.0458,3.4656,147596
144,-0.6835,-0.0906,0.2598,8.374,5.9313,6.4733,147616
145,-0.7101,-0.0615,0.2424,26.8244,17.5191,8.4733,147636
146,-0.7724,0.0166,0.2168,35.6947,21.0916,9.8473,147656
147,-0.7971,0.0391,0.2639,30.3588,15.6794,10.0687,147676
148,-0.7836,0.0522,0.312,16.6183,9.229,8.0763,147696
149,-0.7512,0.0427,0.3301,5.2519,8.3817,3.7176,147716
150,-0.7551,0.0222,0.3169,0.1298,11.1985,-0.4656,147736
151,-0.7748,-0.01,0.2578,1.6565,12.5115,-1.3282,147756
152,-0.7856,-0.0054,0.2136,7.1374,9.3359,-0.4427,147776
153,-0.7744,-0.01,0.2375,14.6031,7.7099,2.8626,147796
154,-0.7419,-0.0195,0.29,16.0458,6.2366,3.8321,147816
155,-0.7341,0.032,0.2991,14.771,9.3359,5.2901,147836
156,-0.7682,0.0571,0.2756,10.1679,12.1374,3.9695,147856
157,-0.8024,0.0645,0.2595,5.1603,8.374,1.2977,147876
158,-0.7792,0.0376,0.249,2.4427,2.8473,-0.0534,147896
159,-0.7578,0.0159,0.2231,2.7481,3.7099,-1.4885,147916
160,-0.7773,0.0356,0.2744,-3.0611,3.3053,-1.0611,147936
161,-0.7797,0.0342,0.2742,-10.0382,-0.6794,-3.6183,147956
162,-0.7692,0.0154,0.2507,-11.2748,-1.5344,-4.5954,147976
163,-0.7624,0.0156,0.259,-9.1527,0.1679,-4.229,147996
164,-0.7805,0.0344,0.2817,-11.9237,0.2061,-1.4656,148016
165,-0.789,0.0295,0.3137,-18.9771,-6.8473,-2.1756,148036
166,-0.7433,-0.021,0.2944,-16.7176,-13.3588,-6.7863,148056
167,-0.7272,-0.0481,0.2471,-7.5191,-9.9084,-6.4046,148076
168,-0.7573,-0.0212,0.2703,-7.0763,-7.4198,-4.6412,148096
169,-0.7895,0.0315,0.2627,-16.6183,-10.4351,0.0992,148116
170,-0.8068,0.0024,0.2026,-29.4809,-18.7939,-0.1374,148136
171,-0.8005,-0.0234,0.1724,-25.6641,-23.0153,-3.9618,148156
172,-0.7607,0.0154,0.2097,-18.8244,-20.7557,-7.3282,148176
173,-0.736,0.0381,0.2607,-21.4351,-14.7099,-6.916,148196
174,-0.6916,-0.0576,0.2859,-19.0534,-7.9084,-1.5573,148216
175,-0.6816,-0.1348,0.2214,-3.4122,6.916,3.0153,148236
0,0.0984,-0.2173,0.7271,-4.8702,-1.4275,3.6412,150816
1,0.0945,-0.2317,0.7454,-9.2061,-5.7176,7.9847,150836
2,0.0911,-0.3071,0.7744,-13.8092,-13.6412,4.4122,150856
3,0.0953,0.0254,1.3867,-14.9084,-22.7176,13.3893,150876
4,0.1368,-0.2742,0.7505,-14.2672,-17.1145,-1.7405,150896
5,0.025,-0.0403,0.7727,-10.1908,-14.9008,4.6412,150916
6,0.0982,-0.0823,0.6169,-31.9618,-29.3053,38.313,150936
7,0.0994,-0.2974,0.7983,-54.5115,-28.2519,33.8626,150956
8,0.147,-0.384,0.8987,-76.5573,-34.1527,32.8931,150976
9,0.1951,-0.3796,0.8535,-95.1603,-33.1527,35.1069,150996
10,0.2007,-0.4155,0.7964,-105.4122,-14.1985,34.5573,151016
11,0.1756,-0.3745,0.7183,-116.3817,8.9389,32.4733,151036
12,0.0882,-0.3665,0.7292,-137.2748,23.5802,43.771,151056
13,0.0303,-0.5347,0.7141,-151.6718,19.2748,53.8931,151076
14,0.1236,-0.7112,0.5964,-144.0534,23.7023,66.4427,151096
15,0.1172,-0.8347,0.4778,-106.0076,41.4198,76.5115,151116
16,0.0008,-0.8215,0.468,-56.2137,57.2824,91.5573,151136
17,-0.069,-0.7024,0.4302,-29.2366,61.6412,115.9924,151156
18,-0.1276,-0.6084,0.395,-37.9618,62.4733,135.2519,151176
19,-0.1833,-0.5027,0.3032,-73.8931,63.374,150.2061,151196
20,-0.2692,-0.4988,0.2471,-115.3053,61.1603,157.4046,151216
21,-0.3322,-0.5469,0.1938,-148.0534,51.229,158.8321,151236
22,-0.3615,-0.4883,0.084,-164.0534,43.2137,161.5038,151256
23,-0.4184,-0.4875,0.0552,-167.2366,30.313,162.6336,151276
24,-0.4804,-0.5061,0.061,-160.8855,6.626,161.1145,151296
25,-0.5002,-0.4417,0.0205,-136.0916,-16.4886,161.0153,151316
26,-0.5219,-0.3352,-0.0298,-109.8244,-36.0229,162.8855,151336
27,-0.5085,-0.1863,-0.0645,-112.8015,-50.0916,162.8321,151356
28,-0.5544,-0.0981,-0.1023,-129.6412,-59.4427,155.7939,151376
29,-0.6252,-0.1357,-0.0994,-147.7405,-80.8702,146.3359,151396
30,-0.6408,-0.1973,-0.1152,-147.1298,-103.313,132.084,151416
31,-0.6049,-0.1892,-0.1353,-132.771,-109.8779,118.6565,151436
32,-0.5966,-0.1355,-0.0999,-119.3969,-105.6565,108.8015,151456
33,-0.6498,-0.0642,-0.1353,-108.8779,-97.0611,103.5573,151476
34,-0.7165,-0.0898,-0.1128,-96.8092,-107.1527,101.0458,151496
35,-0.7285,-0.1125,-0.0791,-71.1145,-117.5649,95.229,151516
36,-0.6694,-0.0774,-0.0488,-39.4885,-118.6565,92.145,151536
37,-0.6447,-0.0483,-0.0115,-7.0992,-106.5649,89.1374,151556
38,-0.6779,0.0256,0.0408,22.8015,-92.687,85.5573,151576
39,-0.7197,0.1296,0.092,39.7634,-85.7099,86.2214,151596
40,-0.728,0.1772,0.144,38.4656,-86.9084,85.7634,151616
41,-0.7263,0.2205,0.165,24.2824,-84.9695,82.9542,151636
