Index,accX,accY,accZ,girX,girY,girZ,Time(ms)
0,-0.0505,-0.3396,0.6694,-6.4351,-0.8626,-9.4962,86713
1,0.0255,-0.1443,0.7615,-7.9084,1.0076,-1.9237,86733
2,0.0701,-0.1069,0.802,-9.2672,0.8779,2.0992,86753
3,0.0735,-0.1741,0.8501,-11.4962,0.2901,-0.2443,86773
4,0.0643,-0.1477,0.8188,-12.0916,1.0458,-4.1145,86793
5,0.0362,-0.1416,0.7957,-11.5649,-0.7252,-8.0076,86813
6,0.0499,-0.1321,0.7847,-11.3511,-2.8244,-7.7023,86833
7,0.0845,-0.1565,0.8071,-12.6565,-4.4733,-6.0305,86853
8,0.0811,-0.175,0.825,-13,-6.4427,-5.145,86873
9,-0.0002,-0.1372,0.8862,-22.9542,-11.0992,-13.0534,86893
10,0.1072,-0.1001,0.7297,-24.7786,-0.9084,-9.8244,86913
11,0.1905,-0.0967,0.7004,-44.7176,-0.7176,-1.7939,86933
12,-0.0761,0.1426,0.8953,-92.3206,-7.1145,47.9542,86953
13,0.1138,-0.0769,0.8782,-127.626,-29.8168,84.2137,86973
14,0.0355,-0.3486,0.6262,-153.7939,-41.6565,88.9771,86993
15,0.1641,-0.3357,0.5244,-135.1221,-3.9313,35.458,87013
16,0.1575,-0.3467,0.6882,-130.3969,18.3053,17.0611,87033
17,0.129,-0.4956,0.6951,-138.5191,13.9847,29.1603,87053
18,0.2078,-0.4739,0.5977,-167.4657,20.5114,34.5573,87073
19,0.0901,-0.6304,0.5598,-197.8779,25.1985,52.6565,87093
20,0.1104,-0.8557,0.469,-202.5725,26.1756,71.1374,87113
21,-0.0273,-0.937,0.4343,-179.7328,28.626,84.1985,87133
22,-0.1039,-0.8323,0.4124,-157.2977,25.7557,95.6947,87153
23,-0.2556,-0.7217,0.3389,-144.6718,18.8931,107.8855,87173
24,-0.3859,-0.6064,0.2773,-140.2748,1.2366,121.9389,87193
25,-0.3705,-0.6296,0.1619,-137.4046,-15.1221,137.9695,87213
26,-0.3989,-0.6162,0.0842,-114.4809,-18.8855,144.2366,87233
27,-0.4592,-0.5969,0.0862,-90.5954,-22.3817,149.3282,87253
28,-0.5295,-0.4751,0.0981,-53.9237,-27.8397,148.8931,87273
29,-0.5273,-0.3376,0.0117,-14.9466,-34.7405,151.6183,87293
30,-0.4648,-0.3445,0.0076,5.1298,-26.8779,154.7481,87313
31,-0.5246,-0.2759,0.092,9.3359,-26.8092,144.2672,87333
32,-0.5969,-0.1345,0.1128,6.4198,-35.8473,139.1908,87353
33,-0.5795,-0.1582,0.0596,-6.0687,-40.8321,135.6412,87373
34,-0.5583,-0.2034,0.0544,-16.374,-37.1908,127.5267,87393
35,-0.6452,-0.1892,0.1296,-14.6412,-36.9847,117.0611,87413
36,-0.6481,-0.1235,0.1462,-13,-41.3435,114.7023,87433
37,-0.6318,-0.1223,0.1157,-13.4733,-39.1832,118.2214,87453
38,-0.6437,-0.1338,0.124,-15.8244,-39.4885,115.2137,87473
39,-0.652,-0.1052,0.1843,-21.5496,-40.687,108.0916,87493
40,-0.6628,-0.0725,0.1907,-22.3664,-43.7786,107.5038,87513
41,-0.6723,-0.0317,0.1584,-20.6947,-43.0229,108.8626,87533
42,-0.7045,-0.0173,0.1729,-18.5878,-43.4962,107.7252,87553
43,-0.7028,0.0408,0.1873,-9.5267,-44.7481,104.6031,87573
44,-0.6799,0.0381,0.1987,-0.8626,-43.5725,99.9924,87593
45,-0.6999,0.0659,0.2214,3.1985,-38.5573,94.2977,87613
46,-0.7236,0.1416,0.2454,3.9466,-39.7405,86.3359,87633
47,-0.6943,0.1914,0.2493,1.145,-39.7023,78.4962,87653
48,-0.6784,0.1594,0.2458,-1.4351,-32.9008,67.626,87673
49,-0.7233,0.197,0.2778,-4.2443,-25,58.6031,87693
50,-0.7656,0.1907,0.2957,-8.6336,-25.4656,50.1145,87713
51,-0.7446,0.1555,0.2859,-2.4198,-22.8168,39.2748,87733
52,-0.7162,0.229,0.2483,13.2214,-10.8092,32.8015,87753
53,-0.7353,0.2539,0.2986,15.6489,1.1145,31.1679,87773
54,-0.7946,0.252,0.3081,2.5649,2.1832,23.2901,87793
55,-0.8168,0.2649,0.2922,-18.374,1.0305,19.626,87813
56,-0.8478,0.1921,0.2849,-33.9466,0.4427,17.7634,87833
57,-0.8195,0.1245,0.2561,-26.9847,3.1985,17.3206,87853
58,-0.831,0.1606,0.2568,-7.1603,8.374,21.2824,87873
59,-0.8588,0.2036,0.2671,4.4427,10.1832,24.1527,87893
60,-0.8701,0.2244,0.2429,5.2137,11.8931,23.5191,87913
61,-0.8874,0.2722,0.2476,-2.4809,10.5802,23.4504,87933
62,-0.8964,0.25,0.2581,-14.8168,3.0687,22.3969,87953
63,-0.851,0.2312,0.2485,-10.5954,0.1832,20.1756,87973
64,-0.8478,0.2358,0.2747,5.7252,3.2214,17.9237,87993
65,-0.8713,0.2883,0.2957,13.7481,1.9084,15.9008,88013
66,-0.8622,0.3152,0.2915,4.4656,-5.9313,14.0687,88033
67,-0.8686,0.2949,0.3049,-9.1908,-5.7481,10.9466,88053
68,-0.8615,0.2888,0.3037,-15.3893,-7.9771,9.0229,88073
69,-0.8464,0.2695,0.2805,-10.7176,-9.1069,7.7405,88093
70,-0.8608,0.2722,0.2871,-5.374,-9.0076,5.8931,88113
71,-0.8686,0.2485,0.2725,-7.3206,-11.6489,3.4427,88133
72,-0.8737,0.2581,0.2786,-10.4046,-10.771,2.2366,88153
73,-0.874,0.2566,0.2715,-11.855,-10.9389,3.6412,88173
74,-0.8574,0.2671,0.2517,-5.7176,-9.6641,3.9389,88193
75,-0.8503,0.2869,0.2495,0.0611,-8.4809,5.8244,88213
76,-0.8476,0.2876,0.2795,1.7863,-7.7557,5.229,88233
77,-0.8471,0.302,0.2625,0.2443,-6.2977,4.7405,88253
78,-0.8539,0.3003,0.2581,-2.3664,-5.7557,3.8702,88273
79,-0.8503,0.3,0.2546,-2.3817,-6.1298,2.9008,88293
80,-0.8434,0.2988,0.2512,-2.5267,-6.5115,2.4122,88313
81,-0.8403,0.3091,0.2688,-4.4809,-7.0076,2.1908,88333
82,-0.8434,0.3005,0.2568,-7.626,-6.542,2.084,88353
83,-0.8515,0.3103,0.2515,-9.8931,-6.1679,2.6031,88373
84,-0.8705,0.3147,0.252,-11.3893,-5.4351,3.0153,88393
85,-0.8769,0.3269,0.248,-14.1527,-6.0992,3.9466,88413
86,-0.8823,0.3342,0.251,-17.4046,-6.8015,4.542,88433
87,-0.9047,0.3176,0.2786,-19.3588,-7.4275,4.9542,88453
88,-0.8915,0.3096,0.2883,-19.8092,-9.2748,6.8702,88473
89,-0.8776,0.2888,0.3079,-17.3359,-8.9618,7.9542,88493
90,-0.8503,0.291,0.3059,-15.2519,-8.7252,8.8092,88513
91,-0.8391,0.2798,0.3015,-12.4809,-7.3053,7.6489,88533
92,-0.8505,0.2786,0.2871,-11.4275,-7.2519,5.5954,88553
93,-0.8701,0.2839,0.2961,-12.8015,-9.0458,2.4198,88573
94,-0.881,0.2637,0.3264,-15.5267,-15.0992,-0.9008,88593
95,-0.8447,0.2529,0.3306,-12.9618,-16.7099,-2.5038,88613
96,-0.8249,0.2405,0.3379,-6.8855,-14.3817,-1.9542,88633
97,-0.8254,0.2556,0.3245,-2.687,-11.9924,-1.1679,88653
98,-0.8293,0.2766,0.3137,-4.1374,-9.8168,-0.0153,88673
99,-0.8278,0.2686,0.2949,-6.0153,-8.5573,-0.4504,88693
100,-0.8373,0.2625,0.2888,-5.5802,-6.313,-1.1985,88713
101,-0.8447,0.2656,0.2991,-3.4885,-5.5191,-1.1221,88733
102,-0.8447,0.2688,0.3013,-2.7328,-5.3817,-0.4809,88753
103,-0.8422,0.272,0.3049,-2.3969,-4.2443,0.0382,88773
104,-0.84,0.2847,0.3057,-1.9618,-3.2748,0.1298,88793
105,-0.8342,0.2908,0.2969,-1.9313,-3.4504,-0.8168,88813
106,-0.8408,0.2915,0.3054,-2.5496,-4.0611,-1.6412,88833
107,-0.8464,0.2859,0.3086,-3.2519,-3.6336,-2.3053,88853
108,-0.8583,0.2871,0.3027,-3.7634,-4.3588,-1.8244,88873
109,-0.8483,0.2832,0.3135,-2.3664,-3.5038,-1.6718,88893
110,-0.8566,0.3005,0.3181,-2.8702,-3.2824,-0.4656,88913
111,-0.862,0.2822,0.3159,-5.6183,-4.3664,-1.5115,88933
112,-0.8571,0.2903,0.3103,-6.7328,-4.5954,-1.1298,88953
113,-0.8535,0.2742,0.3162,-8.1985,-4.8931,-0.1298,88973
114,-0.8395,0.2595,0.3113,-4.9924,-3.5802,0.1298,88993
115,-0.8412,0.2593,0.3137,-1.8779,-1.3435,1.0687,89013
116,-0.853,0.2646,0.3108,-1.5878,-2.0687,0.8015,89033
117,-0.8493,0.2649,0.3081,-2.6947,-4.1374,-0.3053,89053
118,-0.8344,0.2783,0.3135,-4.5954,-4.9313,-0.9313,89073
119,-0.843,0.2502,0.3103,-4.1221,-4.1527,-1.5191,89093
120,-0.8449,0.2561,0.3186,-2.6183,-3.2366,0.0153,89113
121,-0.843,0.2581,0.3171,-0.7099,-1.9771,0.1603,89133
122,-0.8493,0.2698,0.3032,-1.1298,-1.5191,0.3893,89153
123,-0.8532,0.2649,0.3062,-2.9008,-2.5878,-0.2443,89173
124,-0.8495,0.2539,0.3037,-3.4351,-3.7252,-0.9695,89193
125,-0.8434,0.2607,0.3145,-2.4275,-3.5649,0.0153,89213
126,-0.841,0.2588,0.3193,-0.9847,-2.6641,0.7328,89233
127,-0.8373,0.2722,0.3225,-0.9695,-1.145,1.8626,89253
128,-0.8471,0.2664,0.3115,-1.1298,-0.2748,0.9618,89273
129,-0.8593,0.2739,0.301,-2,-1.1679,0.0153,89293
130,-0.8581,0.2742,0.3013,-2.7252,-2.7557,-0.0916,89313
131,-0.8461,0.2593,0.3035,-2.0305,-2.8626,0.2366,89333
132,-0.8474,0.271,0.3079,-0.0458,-1.5344,1.6718,89353
133,-0.8527,0.2686,0.3093,-1.6489,-1.9847,2.2977,89373
134,-0.8488,0.2727,0.3132,-2.4733,-2.2519,1.9084,89393
135,-0.8483,0.2708,0.3113,-2.0992,-2.0305,1.4885,89413
136,-0.8471,0.2664,0.3,-1.8626,-2.0763,1.1298,89433
137,-0.8491,0.2754,0.3054,-2.4656,-1.9237,1.0305,89453
138,-0.8576,0.2644,0.3108,-3.0229,-2.4046,1.8855,89473
139,-0.8552,0.2612,0.3049,-2.4046,-2.2748,2.2824,89493
140,-0.8493,0.2725,0.3137,-0.9084,-2.3359,3.4809,89513
141,-0.8471,0.2815,0.3066,-1.6336,-1.8702,3.2748,89533
142,-0.8535,0.2776,0.3071,-3.6336,-3.2824,2.0916,89553
143,-0.8403,0.2649,0.3008,-3.4962,-4.1221,1.2443,89573
144,-0.8366,0.2747,0.3057,-1.7481,-3.8168,1.6718,89593
145,-0.8417,0.2688,0.3086,-1.8702,-3.6031,1.2366,89613
146,-0.8513,0.2764,0.2981,-2.9084,-3.0763,1.1145,89633
147,-0.8549,0.2578,0.3066,-3.1908,-2.7252,1,89653
148,-0.8491,0.2727,0.3037,-1.1298,-2.7634,1.1221,89673
149,-0.8486,0.28,0.3074,-0.084,-1.6183,1.313,89693
150,-0.8622,0.2861,0.3022,-1.5115,-3.5573,1.084,89713
151,-0.8569,0.2659,0.3105,-3.9313,-4.8397,0.4656,89733
152,-0.8537,0.2778,0.3008,-2.3206,-3.9084,0.8321,89753
153,-0.8469,0.2688,0.3064,-1.2366,-3.0992,2.1908,89773
154,-0.8449,0.2764,0.3013,-1.4122,-2.9847,2.687,89793
155,-0.8444,0.2856,0.3047,-1.4275,-2.7481,1.9466,89813
156,-0.8493,0.2832,0.3018,-2.7252,-3.3817,1.2519,89833
157,-0.8549,0.2776,0.3032,-3.0992,-3.8702,0.5191,89853
158,-0.8461,0.2759,0.3159,-2.6336,-3.6107,1.0153,89873
159,-0.8459,0.27,0.3162,-2.2137,-3.2061,1.5267,89893
160,-0.8474,0.2754,0.3013,-2.0611,-2.7099,1.7786,89913
161,-0.853,0.2744,0.3037,-2.7481,-2.4351,1.9084,89933
162,-0.8552,0.2842,0.3052,-2.626,-3.2595,1.5115,89953
163,-0.8476,0.2793,0.3086,-2.6794,-3.9924,1.1679,89973
164,-0.8461,0.2703,0.3186,-3.7328,-3.6107,1.5115,89993
165,-0.8466,0.2708,0.3174,-1.6489,-2.8473,0.7405,90013
166,-0.8508,0.2776,0.3088,-2.6107,-2.8321,1.5649,90033
167,-0.8481,0.2688,0.322,-2.2519,-3.0305,1.6718,90053
168,-0.8437,0.2903,0.3052,-1.6947,-3.1069,1.4809,90073
169,-0.8471,0.2725,0.3115,-2.5496,-3.374,0.7786,90093
170,-0.8476,0.2717,0.3142,-3.1221,-3.145,-0.2366,90113
171,-0.8547,0.2673,0.2993,-3.626,-2.9695,0.6183,90133
172,-0.8517,0.2605,0.3098,-2.4885,-2.9924,1.1069,90153
173,-0.8434,0.2722,0.3113,-0.5573,-3.1679,2.4733,90173
174,-0.8471,0.2937,0.3091,-0.4733,-3.3817,1.5344,90193
175,-0.8486,0.2869,0.312,-2.3969,-3.8702,0.7557,90213
0,-0.1008,-0.3179,0.8442,-3.6107,7.1679,7.855,93833
1,0.0953,-0.2983,0.7041,3.7634,6.5878,-4.9847,93853
2,0.0953,-0.2668,0.7324,5.5115,2.9847,-10.3969,93873
3,0.1014,-0.2234,0.718,4.6107,1.8779,-9.4962,93893
4,0.1258,-0.186,0.7351,0.2824,0.6489,-3.2977,93913
5,0.1534,-0.2075,0.7417,-4.8397,-3.0687,2.5496,93933
6,0.1221,-0.2615,0.7476,-7.0611,-7.8168,2.8015,93953
7,0.1133,-0.2483,0.759,-9.5344,-13.6489,4.1679,93973
8,0.1275,-0.218,0.7251,-8.916,-19.8473,5.5191,93993
9,0.0084,-0.428,0.8044,-9.0992,-32.4351,-0.855,94013
10,0.0836,-0.3394,0.7983,-3.0916,-30.916,-15.3969,94033
11,0.1104,-0.1902,0.6785,-12.7405,-38.229,-27.8473,94053
12,0.1351,-0.158,0.7791,-33.7863,-41.3893,-6.4122,94073
13,0.3143,-0.0667,0.6921,-46.6641,-19.6107,14.8321,94093
14,0.2698,-0.0747,0.8225,-80.3893,-6.5573,16.5038,94113
15,0.4451,-0.0171,0.6604,-116.6718,16.8473,46.4351,94133
16,0.1797,-0.4539,0.7173,-177.5802,33.3053,73.0763,94153
17,0.3187,-0.46,0.5149,-234.9924,33.5954,65.458,94173
18,0.1046,-0.8352,0.5974,-231.5114,29.0305,60.4046,94193
19,0.252,-1.1384,0.3457,-121.1908,28.7023,41.7939,94213
20,0.1539,-0.8088,0.4023,-3.3969,68.4885,53.855,94233
21,-0.0673,-0.5337,0.5303,31.8092,69.0916,90.0382,94253
22,-0.1266,-0.4534,0.5291,-6.1527,56.1985,119.5954,94273
23,-0.2109,-0.54,0.4683,-48.1145,38.9542,132.0076,94293
24,-0.2294,-0.6196,0.4146,-77.5878,24.4275,125.0611,94313
25,-0.2138,-0.6118,0.3447,-80.7023,17.0992,128.3817,94333
26,-0.2543,-0.5361,0.3147,-75.9084,13.9237,137.626,94353
27,-0.2866,-0.5393,0.2988,-73.6489,8.5496,148.1374,94373
28,-0.2973,-0.4766,0.2427,-79.5649,6.771,158.2748,94393
29,-0.3544,-0.4641,0.2263,-95.084,-2.6565,161,94413
30,-0.36,-0.4377,0.1694,-107.6489,-12.2901,160.6183,94433
31,-0.3998,-0.3762,0.1543,-110.7252,-15.7939,158.1145,94453
32,-0.4799,-0.3933,0.1323,-106.1908,-26.8473,152.9389,94473
33,-0.5121,-0.3423,0.0918,-90.2901,-30.6489,150.2061,94493
34,-0.6301,-0.303,0.1465,-66.7176,-39.916,146.8626,94513
35,-0.6682,-0.2627,0.1594,-49.7328,-53.5344,143.4427,94533
36,-0.601,-0.1726,0.1548,-43.626,-59.1069,149.1145,94553
37,-0.6379,-0.1404,0.178,-40.6947,-56.4809,148.8779,94573
38,-0.6252,-0.1196,0.1755,-33.6183,-59.0916,133.3435,94593
39,-0.5366,-0.1321,0.1243,-25.8321,-54.1756,133.9389,94613
40,-0.5307,-0.052,0.1238,-27.0992,-39.7786,133.5725,94633
41,-0.5864,0.0293,0.157,-41.2519,-34.4733,125.6107,94653
42,-0.6091,0.0977,0.2002,-56.0458,-37.9389,118.3664,94673
43,-0.5976,0.0408,0.1914,-58.0534,-39.626,112.145,94693
44,-0.5878,0.064,0.1558,-43.9313,-34.4809,105.9695,94713
45,-0.6218,0.1064,0.1616,-38.9084,-28.0305,99.855,94733
46,-0.694,0.1108,0.2007,-40.0229,-31.7634,83.5496,94753
47,-0.7194,0.1685,0.2275,-33.2137,-33.6412,74.1527,94773
48,-0.7187,0.1377,0.2476,-18.1527,-32.4962,71.8244,94793
49,-0.7436,0.1785,0.3059,-11.1221,-28.2595,69.3053,94813
50,-0.8061,0.239,0.2578,-17.1527,-30.145,67.8321,94833
51,-0.819,0.2048,0.1975,-47.1756,-39.7939,63.8092,94853
52,-0.8036,0.1567,0.219,-59.5954,-41.3817,56.8702,94873
53,-0.8015,0.1475,0.2998,-46.3511,-38.2366,54.5496,94893
54,-0.7907,0.1584,0.3047,-24.3053,-35.4046,53.4351,94913
55,-0.8288,0.2507,0.3462,-8.9237,-31.2824,55.7252,94933
56,-0.8403,0.301,0.3293,-3.9313,-33.9466,55.0229,94953
57,-0.8234,0.3267,0.3301,-6.5954,-34.6107,53.1374,94973
58,-0.8036,0.3057,0.3813,-4.0992,-31.0305,47.0763,94993
59,-0.7836,0.3242,0.4136,3.3664,-26.7557,41.0229,95013
60,-0.7763,0.3689,0.3647,11.6489,-19.4198,37.9389,95033
61,-0.8376,0.377,0.3853,24.9313,-19.2748,35.2366,95053
62,-0.8625,0.3689,0.4209,38.374,-26.4427,30.5954,95073
63,-0.8425,0.4177,0.4023,37.7863,-26.5573,27.9313,95093
64,-0.8459,0.4871,0.3777,14.4809,-22.6336,26.2443,95113
65,-0.8745,0.4563,0.3594,-14.2366,-21.5954,21.5725,95133
66,-0.872,0.4224,0.3301,-26.0076,-19.0076,16.8092,95153
67,-0.8774,0.3613,0.3096,-17.7252,-15.7252,15.3817,95173
68,-0.86,0.3887,0.3118,0.687,-13.8702,17.5191,95193
69,-0.8456,0.4558,0.2981,3.1069,-11.7405,22.5878,95213
70,-0.8456,0.4402,0.3313,-7.5038,-13.7023,23.0153,95233
71,-0.8046,0.4197,0.3291,-12.0992,-13.4809,17.8092,95253
72,-0.7587,0.3992,0.3311,-2.5954,-6.4962,12.6947,95273
73,-0.7702,0.4084,0.3459,11.7023,2.2519,10.9542,95293
74,-0.8076,0.47,0.3799,9.4504,3.9618,11.8244,95313
75,-0.8471,0.4646,0.3906,-3.6489,1.4733,9.3588,95333
76,-0.8193,0.4604,0.3491,-4.2824,-0.0153,5.1679,95353
77,-0.8193,0.4448,0.3569,3.5573,3.4427,2.3511,95373
78,-0.8525,0.4585,0.3936,5.0534,1.5191,1.145,95393
79,-0.8552,0.4756,0.3865,-3.3206,-0.9847,2.0534,95413
80,-0.8398,0.4468,0.3606,-15.9313,-1.1832,3.374,95433
81,-0.8437,0.4148,0.3567,-19.4656,-1.2824,1.5954,95453
82,-0.8627,0.4167,0.4097,-15.6565,-5.9466,-1.0229,95473
83,-0.8408,0.4333,0.4021,-17.2672,-9.1679,-1.2901,95493
84,-0.8129,0.4116,0.3425,-21.2595,-3.9542,-1.4198,95513
85,-0.8146,0.3779,0.3257,-14.9389,1.7099,-1.2519,95533
86,-0.8337,0.3877,0.3909,-5.916,4.4351,1.2137,95553
87,-0.8452,0.4146,0.3982,-1.5649,4.8015,4.9389,95573
88,-0.8598,0.4453,0.3997,-5.4046,5.6107,6.9389,95593
89,-0.8749,0.4397,0.3877,-9.3511,3.5267,4.7634,95613
90,-0.8683,0.4158,0.3713,-6.4962,-0.0153,1.7863,95633
91,-0.8554,0.4192,0.374,-1.3359,-1.6183,0.6565,95653
92,-0.8478,0.4016,0.3726,1.3206,-3.2748,1.0992,95673
93,-0.8447,0.4263,0.3611,-0.3053,-3.626,2.0611,95693
94,-0.8425,0.4238,0.3601,-6.2748,-6.0763,1.8473,95713
95,-0.8476,0.4111,0.3586,-9.1374,-8.4809,0.8015,95733
96,-0.8317,0.3958,0.3613,-5.4046,-9.0458,-1.9008,95753
97,-0.8261,0.417,0.3557,0.8855,-5.7481,-1.4809,95773
98,-0.832,0.4143,0.3645,2.1221,-4.8092,-0.1221,95793
99,-0.8491,0.425,0.3745,-1.9313,-4.0305,0.8626,95813
100,-0.8593,0.418,0.3618,-4.9313,-5.9618,0,95833
101,-0.8422,0.4114,0.3477,-0.8779,-5.916,-0.3893,95853
102,-0.8295,0.4075,0.354,4.8244,-3.3511,-0.2824,95873
103,-0.8359,0.4375,0.3472,7.2977,-1.626,1.1908,95893
104,-0.8417,0.447,0.3643,-1.145,-3.8931,3.2443,95913
105,-0.8452,0.4202,0.3677,-6.8931,-6.374,1.5038,95933
106,-0.8203,0.4194,0.3521,-6.7939,-5.3511,0.5573,95953
107,-0.8268,0.4006,0.3674,-2.0382,-1.8931,0.229,95973
108,-0.8339,0.4146,0.3643,2.229,-1.1298,1.1069,95993
109,-0.8366,0.4297,0.3635,-0.7939,-1.4656,2.1603,96013
110,-0.8491,0.4355,0.3584,-5.2824,-2.7328,1.4733,96033
111,-0.8452,0.4255,0.3701,-8.6031,-4.2443,-0.313,96053
112,-0.8447,0.4021,0.3699,-6.9313,-5.4351,-1.5573,96073
113,-0.8474,0.3977,0.3704,-0.7405,-3.3893,-0.5878,96093
114,-0.8432,0.4243,0.3816,0.7099,-2.3817,2.2672,96113
115,-0.8415,0.4268,0.3821,-1.4733,-2.5267,2.5344,96133
116,-0.8442,0.4282,0.364,-3.9695,-2.687,1.7023,96153
117,-0.843,0.4121,0.3506,-4.1985,-3.2214,0.1985,96173
118,-0.8427,0.3999,0.3591,-1.4885,-3.1221,-0.2824,96193
119,-0.8359,0.4248,0.3591,-0.6794,-2.4885,1.4962,96213
120,-0.8373,0.4177,0.3743,-0.0992,-2.5038,1.8626,96233
121,-0.831,0.4331,0.3633,-0.626,-1.6565,2.0458,96253
122,-0.842,0.4268,0.3599,-4.3282,-1.313,2.0687,96273
123,-0.8495,0.4087,0.3608,-4.2137,-1.8855,0.1069,96293
124,-0.8483,0.4106,0.3674,-1.8397,-3.6794,0.4962,96313
125,-0.8337,0.418,0.3657,0.2977,-3.2366,1.2748,96333
126,-0.8364,0.4241,0.3599,0.5802,-2.2061,2.0916,96353
127,-0.8437,0.4282,0.3635,-1.3511,-1.458,1.7939,96373
128,-0.8476,0.4224,0.3647,-4.3053,-2.2977,1.3893,96393
129,-0.8481,0.416,0.3586,-3.1985,-2.9618,-0.0153,96413
130,-0.8444,0.425,0.3679,-2.0229,-3.4427,0.1221,96433
131,-0.8395,0.4177,0.3691,-2.6031,-2.6336,1.458,96453
132,-0.8417,0.4275,0.3647,-3.4275,-2.0458,2.3511,96473
133,-0.8344,0.4238,0.3516,-3.8244,-1.8702,1.4656,96493
134,-0.8364,0.4204,0.3494,-2.5878,-1.1374,1.0534,96513
135,-0.8505,0.4087,0.3591,-1.3053,-2.2137,0.5802,96533
136,-0.851,0.4194,0.3608,-0.6947,-3.2901,0.5954,96553
137,-0.8425,0.429,0.3701,-2.5191,-3.0382,1.4427,96573
138,-0.8403,0.4182,0.3667,-3.4885,-2.5878,1.2214,96593
139,-0.8405,0.4207,0.3608,-2.6718,-1.8168,1.4962,96613
140,-0.8383,0.4175,0.3567,-2.0382,-2.0076,1.4351,96633
141,-0.8464,0.4209,0.3489,-2.2137,-1.9008,1.3817,96653
142,-0.8483,0.4248,0.3696,-3.4885,-2.7252,1.5802,96673
143,-0.8417,0.4214,0.3623,-3.5267,-3.4733,1.7939,96693
144,-0.8361,0.4255,0.3584,-1.2366,-1.8244,1.374,96713
145,-0.8434,0.4277,0.3555,-1.0687,-0.5038,1.4351,96733
146,-0.8557,0.4243,0.3623,-2.916,-2.6183,1.2748,96753
147,-0.843,0.4194,0.3584,-4.0382,-3.8168,0.3511,96773
148,-0.8364,0.4146,0.3684,-1.5191,-2.9237,0.0687,96793
149,-0.84,0.4314,0.3679,-0.2137,-1.4046,1.8473,96813
150,-0.8557,0.4341,0.3706,-2.7863,-1.687,2.5115,96833
151,-0.8569,0.4243,0.3721,-2.8015,-3.5191,1.2748,96853
152,-0.8359,0.4253,0.3445,-0.2901,-3.2672,1.2137,96873
153,-0.8386,0.4329,0.3442,0.2977,-0.9237,2,96893
154,-0.851,0.4258,0.3523,-1.4962,-2.542,1.4656,96913
155,-0.8408,0.4255,0.3462,-3.5573,-3.3817,1.4504,96933
156,-0.8383,0.415,0.3574,-2.5267,-2.1374,1.1603,96953
157,-0.8403,0.4351,0.3586,-1.6565,-1.9695,1.5344,96973
158,-0.8371,0.4275,0.3579,-1.9084,-1.0763,0.8626,96993
159,-0.8417,0.4297,0.3511,-3.8168,-1.5573,1.374,97013
160,-0.8434,0.4102,0.3521,-3.7634,-2.3435,0.8244,97033
161,-0.8454,0.4275,0.3484,-1.9695,-1.5038,1.0382,97053
162,-0.8561,0.4229,0.3745,-1.0916,-2.5573,0.7939,97073
163,-0.843,0.437,0.3711,-1.4733,-3.7405,0.6031,97093
164,-0.8395,0.418,0.3562,-3.3588,-1.8473,0.6107,97113
165,-0.8581,0.4192,0.3533,-4.0153,-1.1298,0.9924,97133
166,-0.8603,0.4099,0.3552,-1.7557,-3.3282,0.7481,97153
167,-0.8412,0.4363,0.3557,-0.458,-4.4427,1.5344,97173
168,-0.8286,0.4387,0.3582,-1.7405,-2.916,0.7863,97193
169,-0.8398,0.4307,0.3535,-3.6489,-1.9618,0.4733,97213
170,-0.8495,0.415,0.3567,-4.3969,-2.5496,-0.229,97233
171,-0.8427,0.4194,0.3528,-2.4427,-2.9084,0.2977,97253
172,-0.8405,0.4299,0.3499,-1.8397,-2.1298,1.5191,97273
173,-0.8454,0.4426,0.3547,-2.229,-1.2519,2.2672,97293
174,-0.8554,0.4307,0.3542,-3.2519,-2.6794,1.2672,97313
175,-0.8425,0.4314,0.3608,-3.0763,-3.3359,0.4885,97333
0,0.4224,0.011,0.7114,1.2901,20.145,15.0305,100253
1,0.1929,-0.231,0.8242,-0.6794,10.8397,-8.8244,100273
2,0.1964,-0.1667,0.8259,-6.9313,-5.7557,-14.3969,100293
3,0.231,-0.1345,0.7759,-10.1145,-9.9695,-13.6947,100313
4,0.2161,-0.1501,0.7585,-6.6336,-6.1985,-9.7176,100333
5,0.243,-0.1323,0.7747,-4.9924,-4.8244,-12.0687,100353
6,0.2447,-0.123,0.7703,-5.145,-5.6641,-3.4733,100373
7,0.2498,-0.1211,0.7581,-7.1527,-4.8244,6.8397,100393
8,0.2562,-0.1462,0.7495,-6.1603,0.0153,11.5191,100413
9,0.2444,-0.1682,0.7732,-2.7405,2.9618,16.6336,100433
10,0.231,-0.1655,0.7844,-2.1832,3.3435,19.0687,100453
11,0.1978,-0.1848,0.8315,-5.6183,-0.8168,12.7557,100473
12,0.2308,-0.1843,0.772,-10.5038,-1.6107,0.4656,100493
13,0.1866,-0.1956,0.842,-13.4351,-7.0076,-5.9008,100513
14,0.3734,-0.3984,0.6611,-16.4275,-13.7481,-10.6183,100533
15,0.4683,0.446,0.5276,-11.4046,3.5802,11.6412,100553
16,0.0443,-0.0725,0.8157,-30.1374,12.1374,36.5267,100573
17,0.2042,-0.0981,0.8088,-51.3435,-15.6107,15.2748,100593
18,0.2903,-0.2449,0.7446,-49.5191,-4.7557,23.771,100613
19,0.213,-0.2637,0.7625,-35.1908,2.1298,14.9084,100633
20,0.2493,-0.1233,0.7852,-44.7939,7.3435,14.1756,100653
21,0.251,-0.1172,0.8137,-76.9542,12.7863,19.1527,100673
22,0.2271,-0.2075,0.7771,-105.9084,6.9084,22.8168,100693
23,0.2579,-0.2935,0.6848,-122.0305,9.4046,22.4962,100713
24,0.2029,-0.302,0.6672,-131.3359,12.7023,21.1985,100733
25,0.1544,-0.3748,0.6907,-137.229,8.9237,24.7023,100753
26,0.2122,-0.5569,0.6265,-122.626,4.4656,28.1679,100773
27,0.23,-0.6011,0.5337,-91.4504,18.2519,34.687,100793
28,0.1419,-0.4995,0.4851,-80.3206,28.8855,46.2748,100813
29,0.0582,-0.5227,0.5103,-93.9389,23.7405,59.9466,100833
30,0.0901,-0.6616,0.4382,-100.313,14,68.1985,100853
31,0.118,-0.709,0.3875,-90.5649,22.5344,75.5573,100873
32,0.0489,-0.6841,0.3606,-86.8321,27.7481,84.0305,100893
33,0.0179,-0.7166,0.3281,-93.3969,26.9924,97.1527,100913
34,-0.0251,-0.8154,0.2673,-79.7252,24.0382,102.3053,100933
35,-0.0192,-0.7495,0.2251,-60.5878,24.145,106.0076,100953
36,-0.1137,-0.625,0.2361,-54.6412,25.9466,120.1679,100973
37,-0.1957,-0.5488,0.2209,-61.6107,19.9924,137.3664,100993
38,-0.2294,-0.5505,0.1851,-68.9237,12.7863,146.8397,101013
39,-0.2822,-0.5273,0.1982,-68.3969,5.1679,147.1679,101033
40,-0.3166,-0.4934,0.1931,-69.0534,-10.1527,148.5496,101053
41,-0.2971,-0.4146,0.1394,-72.1985,-16.8931,152.7786,101073
42,-0.3832,-0.4375,0.168,-70.7099,-24.0611,152.3512,101093
43,-0.3935,-0.4116,0.1365,-54.3817,-32.2443,147.7176,101113
44,-0.3771,-0.3752,0.1067,-40.5344,-36.3435,148.1221,101133
45,-0.4047,-0.3203,0.1362,-28.4656,-34.2443,148.7176,101153
46,-0.4611,-0.2808,0.1365,-16.6641,-36.2519,142.5191,101173
47,-0.4846,-0.2461,0.0916,-6.9771,-35.8244,138.4962,101193
48,-0.4811,-0.2285,0.0986,-2.5802,-34.4656,137.4198,101213
49,-0.5331,-0.2085,0.1301,0.7099,-27.3817,133.7863,101233
50,-0.6064,-0.095,0.1624,10.8244,-22.4886,127.9618,101253
51,-0.662,0.0039,0.2187,11.1756,-23.3282,125.0611,101273
52,-0.6923,0.0742,0.2385,1.1832,-23.6641,125.6794,101293
53,-0.7057,0.0947,0.2573,-26.2443,-28.2824,118.0687,101313
54,-0.7429,0.0603,0.2686,-29.4351,-30.8168,104.8015,101333
55,-0.7316,0.0154,0.2549,-10.9389,-31.2672,93.7176,101353
56,-0.6872,0.1001,0.2288,2.1527,-21.9389,92.5038,101373
57,-0.7563,0.1833,0.2681,-5.2061,-6.5496,96.4657,101393
58,-0.8517,0.1575,0.293,-18.4656,-13.8397,91.6031,101413
59,-0.831,0.1489,0.2529,-23.9618,-24.1527,85.8702,101433
60,-0.7751,0.1221,0.2371,-19.374,-24.0076,84.4351,101453
61,-0.7841,0.1897,0.2351,-16.8168,-14.6718,86.3588,101473
62,-0.8483,0.1975,0.2627,-20.6641,-14.7557,84.8244,101493
63,-0.8576,0.2371,0.2532,-22.0916,-19.6107,83.2672,101513
64,-0.8386,0.2439,0.2422,-16.1832,-24.542,80.6336,101533
65,-0.8124,0.2861,0.2505,-5.1756,-25.2061,79.2748,101553
66,-0.7995,0.2998,0.2751,0.542,-25.0305,76.6489,101573
67,-0.7932,0.3638,0.2729,5.4351,-21.8168,74.542,101593
68,-0.801,0.3872,0.2688,-0.458,-16.3435,70.6489,101613
69,-0.8334,0.4119,0.2754,-4.5954,-12.7405,64.6794,101633
70,-0.8334,0.4124,0.3201,-1.8931,-16.8092,55.5115,101653
71,-0.7924,0.427,0.3113,4.6336,-14.7863,47.7939,101673
72,-0.7905,0.4717,0.2913,10.8702,-4.8092,42.6489,101693
73,-0.8293,0.4941,0.3057,10.3969,-0.9924,36.5115,101713
74,-0.8405,0.4915,0.3196,0.8015,-4.1756,28.4962,101733
75,-0.8532,0.4961,0.3274,-17.1832,-6.5954,20.0305,101753
76,-0.8693,0.405,0.3108,-24.3435,-8.3893,10.9771,101773
77,-0.852,0.4109,0.2791,-13.6336,-7.9924,7.0916,101793
78,-0.8417,0.4417,0.272,-5.5878,-3.2824,10.6107,101813
79,-0.8735,0.4521,0.3076,-7.2672,-3.0076,13.145,101833
80,-0.8762,0.47,0.3037,-13.0916,-5.6641,15.2443,101853
81,-0.8554,0.4421,0.2766,-12.5496,-5.6641,15.313,101873
82,-0.8339,0.4329,0.269,-4.4733,-1.8015,13.4656,101893
83,-0.8334,0.4788,0.2771,-3.4962,0.6412,11.7634,101913
84,-0.861,0.4717,0.2869,-17.6565,-0.3511,10.0229,101933
85,-0.8666,0.4285,0.2664,-25.9542,-5.374,4.8473,101953
86,-0.8369,0.4382,0.2473,-24.9389,-4.7252,4.3435,101973
87,-0.8547,0.4478,0.2676,-18.7099,0.3817,5.9771,101993
88,-0.8945,0.4683,0.3088,-10.4885,0.9313,6.8092,102013
89,-0.8818,0.489,0.3047,-0.9466,0.8779,5.5496,102033
90,-0.8647,0.4941,0.2847,4.1756,4.5649,3.5954,102053
91,-0.8889,0.4946,0.2788,3.9542,7.084,1.7023,102073
92,-0.9079,0.4565,0.291,1.0229,3.2443,-0.458,102093
93,-0.9028,0.4285,0.2979,1.626,-1.313,-1.4656,102113
94,-0.8781,0.407,0.302,5.4733,-2.2748,1.4427,102133
95,-0.8637,0.3987,0.2998,14.9771,1.8779,6.8168,102153
96,-0.862,0.4214,0.3042,26.0382,5.3282,10.8931,102173
97,-0.8696,0.448,0.2886,28.2214,5.1908,13.1069,102193
98,-0.8771,0.447,0.2834,24.7939,3.2824,12.5344,102213
99,-0.8559,0.4158,0.2781,28.687,1.084,9.7481,102233
100,-0.8256,0.4175,0.2549,37.8015,0.7252,8.4351,102253
101,-0.8327,0.4912,0.2222,41.9008,8.4656,11.9466,102273
102,-0.8994,0.5579,0.2603,34.1679,9.2977,15.0458,102293
103,-0.9108,0.5847,0.2693,24.8931,4,11.0229,102313
104,-0.8974,0.6016,0.2466,19.0229,3.4962,6.4046,102333
105,-0.9245,0.6111,0.2439,11.6412,2.0611,2.0534,102353
106,-0.9362,0.5723,0.2646,0.1832,-3.3206,0.1145,102373
107,-0.9079,0.5405,0.2483,-7.3511,-8.6641,0.4809,102393
108,-0.8781,0.5056,0.2373,-5.8397,-7.374,1.9466,102413
109,-0.863,0.5024,0.2349,5.8244,-3.4656,4.5649,102433
110,-0.871,0.541,0.239,11.1221,-1.4733,7.3664,102453
111,-0.8837,0.5676,0.2607,2.855,-4.7634,6.7176,102473
112,-0.8691,0.5164,0.2429,-9.0153,-8.4198,2.9389,102493
113,-0.8554,0.4783,0.2329,-4.3359,-7.0076,1.0305,102513
114,-0.8561,0.4834,0.2458,7.5802,-1.9237,2.1527,102533
115,-0.8735,0.5247,0.2437,17.626,1.1527,4.458,102553
116,-0.8835,0.5881,0.2322,16.8931,2.0229,7.229,102573
117,-0.9023,0.5869,0.2512,3.9313,-1.916,7.2443,102593
118,-0.8903,0.5564,0.2646,-7.0763,-7.3969,2.7863,102613
119,-0.8671,0.5291,0.2383,-8.0611,-6.8397,0.2366,102633
120,-0.8649,0.5142,0.2334,0.3435,-2.8779,0.3206,102653
121,-0.8818,0.563,0.2407,4.3053,-2.2595,3.9237,102673
122,-0.8793,0.5693,0.2488,-0.3969,-5.5038,4.0153,102693
123,-0.8664,0.5564,0.2375,-5.9237,-4.771,3.6641,102713
124,-0.872,0.5369,0.2424,-7.6412,-3.4122,2.0763,102733
125,-0.8801,0.5178,0.2571,-2.4885,-4.0534,0.0458,102753
126,-0.8603,0.5334,0.241,2.4733,-4.4198,1.2443,102773
127,-0.8576,0.5471,0.2439,1.1908,-1.8473,2.9466,102793
128,-0.8647,0.5632,0.252,-4.2137,0.855,4.1221,102813
129,-0.8664,0.552,0.2532,-5.8244,2.3359,3.7863,102833
130,-0.8725,0.5369,0.2363,-1.6489,5.0763,3.374,102853
131,-0.8881,0.5479,0.2346,-0.3969,6.4351,6.145,102873
132,-0.9013,0.5615,0.2498,-2.6947,2.8244,6.0763,102893
133,-0.8845,0.5635,0.2593,-4.0687,-1.2748,5.0229,102913
134,-0.872,0.5603,0.2458,-4.0534,-2.6107,2.5802,102933
135,-0.8732,0.5425,0.2332,-3.3053,-3.6947,0.1908,102953
136,-0.8683,0.542,0.2209,-2.3893,-3.5573,-0.4198,102973
137,-0.8757,0.5508,0.2288,-1.229,-2.6794,-0.5878,102993
138,-0.8823,0.5669,0.2241,-2.8397,-2.9313,-0.2672,103013
139,-0.8928,0.5647,0.2346,-4.2824,-4.4809,-0.2977,103033
140,-0.8801,0.5356,0.2297,-1.6718,-4.5191,-0.7863,103053
141,-0.8735,0.5566,0.2373,-0.7863,-2.2137,1.6565,103073
142,-0.8749,0.5581,0.2349,-1.5954,-1.0534,2.0763,103093
143,-0.871,0.5618,0.2305,-1.626,-0.0916,1.626,103113
144,-0.873,0.5513,0.2456,-2.7328,-0.0229,0.3435,103133
145,-0.8754,0.5476,0.2358,-3.374,-0.9771,0.1908,103153
146,-0.8798,0.5339,0.2471,-2.4656,-0.4351,0.3359,103173
147,-0.8806,0.5359,0.231,-0.3282,0.374,1.0458,103193
148,-0.8832,0.5474,0.2312,0.9695,0.8015,2.4046,103213
149,-0.8801,0.553,0.2249,0.3817,-0.2137,2.3969,103233
150,-0.8732,0.5652,0.2322,-0.5038,-1.5115,1.145,103253
151,-0.8718,0.5657,0.219,-2.6794,-1.8015,0.0153,103273
152,-0.8837,0.5557,0.2266,-4.0916,-1.5191,-1.2595,103293
153,-0.8798,0.5374,0.2178,-1.916,-2.3282,-1.1145,103313
154,-0.8784,0.5544,0.2192,2.5954,-1.0458,0.3893,103333
155,-0.8798,0.5789,0.2209,1.6565,-0.1069,1.313,103353
156,-0.8898,0.5798,0.2214,-1.1603,-0.2595,0.542,103373
157,-0.8932,0.5649,0.2241,-4.3053,-1.2824,-0.8779,103393
158,-0.9025,0.5491,0.2358,-5.8321,-2.5496,-1.6718,103413
159,-0.8857,0.5271,0.2383,-4.313,-4.3817,-1.4733,103433
160,-0.8637,0.5222,0.2273,-1.2672,-3.0153,0.9695,103453
161,-0.871,0.5435,0.2246,0.6489,0.0916,3.4885,103473
162,-0.8818,0.5601,0.2312,-1,0.0153,3.5038,103493
163,-0.8832,0.5642,0.23,-3.3817,-2.7176,1.3817,103513
164,-0.8747,0.5349,0.2256,-3.2977,-4.4275,-0.7023,103533
165,-0.8781,0.5454,0.2307,-1.4962,-3.7252,-0.3053,103553
166,-0.8762,0.5496,0.2251,-0.458,-2.4122,0.5115,103573
167,-0.8786,0.563,0.2158,-1.2748,-1.9389,1.7328,103593
168,-0.8793,0.5486,0.22,-2.7328,-2.1145,0.9847,103613
169,-0.8893,0.5593,0.2048,-3.4122,-1.2901,1.5344,103633
170,-0.8837,0.55,0.2202,-3.1985,-1.4427,0.7786,103653
171,-0.8825,0.5681,0.2192,-3.5344,-1.771,0.1145,103673
172,-0.8901,0.5503,0.2329,-3.7328,-2.6794,-0.6412,103693
173,-0.8784,0.5449,0.219,-1.9847,-2.6183,-0.4351,103713
174,-0.8791,0.5547,0.2234,-0.9924,-1.687,1.084,103733
175,-0.883,0.5542,0.2295,-2.1756,-2.1679,0.7557,103753
0,0.011,-0.6331,0.6145,5.0611,-6.8473,-11.0916,106133
1,0.2256,-0.272,0.6743,-0.6641,1.8321,-3.145,106153
2,0.2581,-0.24,0.6829,-0.1679,1.0458,2.1832,106173
3,0.2542,-0.2458,0.6831,0.3359,2.6565,5.0992,106193
4,0.2523,-0.2632,0.6995,-1.0305,2.1145,4.0916,106213
5,0.2496,-0.2671,0.7065,-1.7481,-0.4351,2.1298,106233
6,0.2549,-0.2578,0.7092,-2.7176,-3.5115,1.5954,106253
7,0.2593,-0.2463,0.7126,-4.9924,-5.0611,2.6565,106273
8,0.2708,-0.2354,0.7161,-6.6107,-6.2672,4.4198,106293
9,0.2674,-0.2439,0.7068,-7.5573,-9.458,4.1679,106313
10,0.2642,-0.2485,0.7058,-8.0687,-9.2061,3.1298,106333
11,0.4349,-0.3281,0.501,-10.6718,-13.8626,-2.1603,106353
12,0.294,-0.2461,0.7141,-10.4046,-11.1679,3.1145,106373
13,0.3372,-0.1448,0.5457,-11.0916,-11.5954,7.6641,106393
14,0.2527,-0.196,0.606,-14.084,7.5725,8.3053,106413
15,0.283,-0.1609,0.6306,-26.374,-9.1069,10.7481,106433
16,0.3301,-0.2686,0.6414,-30.6794,-3.8855,14.7557,106453
17,0.3306,-0.2632,0.6704,-33.4733,4.3435,9.6641,106473
18,0.347,-0.2588,0.6995,-45.145,10.6031,19.7863,106493
19,0.2991,-0.3086,0.6902,-57.2672,10.2137,29.0382,106513
20,0.3045,-0.2874,0.6543,-68.084,11.374,36.7405,106533
21,0.2672,-0.3528,0.6106,-79.1298,14.8626,45.1069,106553
22,0.2669,-0.4414,0.5769,-83.0305,17.3969,49.1298,106573
23,0.2532,-0.4766,0.5667,-86.9237,28.6412,56.9313,106593
24,0.1973,-0.6021,0.5645,-80.084,36.5496,63.3206,106613
25,0.1624,-0.6418,0.5549,-69.4885,42.687,69.9618,106633
26,0.1324,-0.6223,0.5432,-68.7557,46.3511,80.3969,106653
27,0.0582,-0.584,0.5076,-79.8626,46.4198,88.3359,106673
28,-0.0058,-0.6572,0.4727,-89.7176,41.2748,101.5496,106693
29,0.0296,-0.6897,0.3789,-90.7252,42,115.2214,106713
30,-0.0329,-0.667,0.3418,-85.7328,47.9008,128.1832,106733
31,-0.1271,-0.6289,0.3118,-85.1374,49.4427,142.1527,106753
32,-0.1977,-0.6125,0.2791,-90.5115,40.4427,150.626,106773
33,-0.2101,-0.5349,0.2036,-98.2672,32.8092,158.0076,106793
34,-0.256,-0.4922,0.1707,-108.9084,27.6107,161.9237,106813
35,-0.3254,-0.4753,0.146,-120.2137,15.9389,163.7939,106833
36,-0.374,-0.4429,0.1099,-120.9618,1.0611,161.0611,106853
37,-0.3649,-0.4216,0.0627,-114.5878,-14.3664,159.9542,106873
38,-0.3366,-0.3982,0.0386,-106.4198,-22.0763,161.3359,106893
39,-0.4135,-0.3464,0.0146,-92.1145,-26.374,157.9847,106913
40,-0.4919,-0.3293,0.0459,-74.9008,-38.8855,151.7328,106933
41,-0.5031,-0.2671,0.0481,-56.0916,-47.8779,146.3969,106953
42,-0.5388,-0.1658,0.0679,-41.3053,-48.916,142.2214,106973
43,-0.5991,-0.0916,0.1509,-44.0611,-49.916,133.4198,106993
44,-0.6435,-0.0979,0.1357,-49.8015,-57.0611,126.7481,107013
45,-0.6525,0.0051,0.1182,-58.5954,-57.1527,120.3969,107033
46,-0.6855,0.063,0.1113,-75.9924,-53.6718,115.7405,107053
47,-0.7531,0.0112,0.1226,-98.4657,-58.2137,105.9008,107073
48,-0.7704,-0.0398,0.106,-97.4122,-65.771,88.374,107093
49,-0.7531,-0.073,0.0879,-72.5725,-71.6718,73.6031,107113
50,-0.6767,0.0208,0.0825,-43.1908,-68.4885,68.687,107133
51,-0.5556,0.1047,0.0771,-34.7557,-44.8779,64.3359,107153
52,-0.6559,-0.0891,0.1216,-60.5649,2.3588,35.542,107173
53,-0.9794,-0.0381,0.2483,-57.6947,13.6031,23.1908,107193
54,-1.0724,0.074,0.2192,-33.3053,-56.771,36.1145,107213
55,-0.7883,0.1343,0.0862,-27.229,-83.2901,51.9771,107233
56,-0.663,0.1011,0.1401,-28.8397,-69.2977,65.9618,107253
57,-0.7175,0.054,0.1545,-20.2748,-45.1527,65,107273
58,-0.7975,0.0574,0.1614,-7.2824,-33.9771,51.6565,107293
59,-0.8139,0.1211,0.1633,0.6107,-32.771,45.3588,107313
60,-0.8044,0.1584,0.1709,-3.8931,-34.4962,49.6412,107333
61,-0.8188,0.1626,0.2935,-17.9466,-40.374,47.7863,107353
62,-0.8181,0.1443,0.2563,-25.1679,-42.4198,42.2672,107373
63,-0.7929,0.1411,0.2195,-25.084,-38.458,38.145,107393
64,-0.8029,0.1575,0.2019,-19.6489,-29.7939,34.5954,107413
65,-0.8334,0.1731,0.2583,-11.5802,-28.855,33.8321,107433
66,-0.831,0.1687,0.3484,-6.145,-35.4198,29.4656,107453
67,-0.7809,0.1921,0.2864,-3.3282,-32.9237,27.2519,107473
68,-0.7795,0.2209,0.2637,-2.4962,-21.5802,26.9466,107493
69,-0.8376,0.2559,0.2593,-8.7176,-17.5114,24.5649,107513
70,-0.8671,0.2344,0.3286,-20.145,-25.6718,19.2748,107533
71,-0.8354,0.2007,0.3394,-25.542,-30.8321,12.4427,107553
72,-0.8098,0.2063,0.2998,-20.4198,-22.3053,12.9847,107573
73,-0.8332,0.2043,0.2861,-12.3206,-13,16.145,107593
74,-0.8552,0.2043,0.3213,-8.8168,-12.6412,15.3282,107613
75,-0.8466,0.229,0.3508,-13.1908,-14.0687,14.1679,107633
76,-0.8383,0.2029,0.3228,-18.1908,-11.3511,13.084,107653
77,-0.8388,0.2063,0.3103,-11.3359,-6.4885,10.7099,107673
78,-0.8488,0.2217,0.3083,-2.1374,-4.9008,9.6718,107693
79,-0.8483,0.2458,0.3286,4.2137,-5.3053,8.7634,107713
80,-0.8351,0.2837,0.3171,-1.0916,-5.084,8.8321,107733
81,-0.8618,0.2444,0.3025,-10.3206,-6.1374,6.5573,107753
82,-0.8537,0.2197,0.2915,-8.5191,-8.9084,2.4885,107773
83,-0.8156,0.2268,0.2861,-0.229,-5.4198,2.2748,107793
84,-0.83,0.2485,0.2881,3.2824,0.1145,5.2443,107813
85,-0.8557,0.2622,0.2927,-2.5725,-2.2214,5.4351,107833
86,-0.8454,0.2302,0.2656,-8.9466,-5.145,4.1527,107853
87,-0.8415,0.2063,0.2678,-8.7023,-4.9618,2.9084,107873
88,-0.8464,0.2222,0.2852,-3.4504,-4.687,3.4885,107893
89,-0.8403,0.2432,0.3015,2.145,-3.1145,5.1527,107913
90,-0.8388,0.2615,0.2939,3.3053,-0.0305,6,107933
91,-0.8481,0.2698,0.2881,0.6718,2.0687,3.9695,107953
92,-0.8725,0.26,0.2871,-5.8397,-1.229,1.5191,107973
93,-0.8708,0.22,0.292,-7.8626,-7.5954,-1.0382,107993
94,-0.8325,0.2014,0.2854,-2.3664,-8.3359,-1.0992,108013
95,-0.8239,0.2288,0.2871,3.6565,-4.6489,2.2443,108033
96,-0.8391,0.2585,0.3066,5.626,-2.6947,3.8397,108053
97,-0.8449,0.2595,0.2954,2.0763,-4.084,2.3206,108073
98,-0.8539,0.2285,0.3032,-2.3359,-5.916,-0.8855,108093
99,-0.8405,0.2178,0.302,-1.4962,-8.0534,-3.8015,108113
100,-0.8381,0.2227,0.3018,-0.6183,-6.8702,-3.1832,108133
101,-0.851,0.2195,0.2981,0.0153,-5.5191,-1.771,108153
102,-0.8676,0.2312,0.3027,0.7176,-6.5954,0.229,108173
103,-0.8557,0.2358,0.2979,3.0611,-7.3969,0.0229,108193
104,-0.8403,0.2576,0.2812,1.1679,-5.6183,1.3817,108213
105,-0.8522,0.2507,0.2917,-0.6107,-4.4275,1.3664,108233
106,-0.8371,0.2512,0.291,-1.1221,-5.9542,0.0305,108253
107,-0.8325,0.25,0.291,-0.7863,-4.4351,-0.0763,108273
108,-0.8505,0.2583,0.2976,-0.1298,-3.4198,1.4733,108293
109,-0.8461,0.2544,0.2959,-2.6718,-4.6947,1.7863,108313
110,-0.8342,0.2429,0.293,-4.4122,-4.1603,1.5573,108333
111,-0.8381,0.2341,0.2991,-2.9237,-2.1908,1.6031,108353
112,-0.8437,0.239,0.3015,-1.1527,-2.5496,1.3588,108373
113,-0.8513,0.252,0.2974,-1.6947,-2.6794,2.1679,108393
114,-0.8488,0.249,0.3079,-2.4351,-3.1298,1.5878,108413
115,-0.8474,0.2458,0.3037,-1.0305,-1.9084,1.9847,108433
116,-0.8559,0.2476,0.3008,0.8779,-1.7557,1.1221,108453
117,-0.8449,0.2402,0.2974,2.4885,-3.8626,0.0229,108473
118,-0.8361,0.2319,0.2949,2.6641,-4.145,0.1908,108493
119,-0.8464,0.2319,0.3022,2.5649,-3.0992,0.1832,108513
120,-0.85,0.2439,0.3135,1.0076,-4.1908,0.4198,108533
121,-0.8427,0.2571,0.3171,-1.145,-4.8015,1.0458,108553
122,-0.8354,0.2615,0.3162,-3.5038,-4.0229,1.3588,108573
123,-0.8356,0.2366,0.301,-4.0534,-3.5038,0.542,108593
124,-0.8442,0.2278,0.3062,-2.5954,-2.5115,0.5267,108613
125,-0.8412,0.2461,0.3123,-0.6641,-2.8779,1.9695,108633
126,-0.8459,0.2454,0.3125,-0.1221,-2.916,2.0076,108653
127,-0.8454,0.2498,0.3105,0.313,-3.1069,2.6412,108673
128,-0.8513,0.2583,0.3145,-0.1756,-2.8626,1.1832,108693
129,-0.8525,0.2581,0.3135,-2.5878,-5.0916,1.145,108713
130,-0.8425,0.2437,0.3022,-3.8779,-4.9237,-1.229,108733
131,-0.8452,0.2327,0.3,-3.1679,-5.2443,0.4962,108753
132,-0.841,0.2195,0.3184,0.7481,-5.6183,0.5038,108773
133,-0.8349,0.2583,0.3179,2.855,-4.0763,2.8473,108793
134,-0.8493,0.2563,0.3149,1.3588,-2.7557,2.5573,108813
135,-0.8481,0.2551,0.3042,-0.5344,-4.0992,1.374,108833
136,-0.8398,0.25,0.2964,-2.8015,-4.9847,-0.2366,108853
137,-0.8417,0.2473,0.2961,-3.7099,-5.6718,-1.6794,108873
138,-0.8415,0.2356,0.313,-1.855,-4.9008,-0.2748,108893
139,-0.8381,0.2495,0.3213,0.8244,-4.0305,0.5802,108913
140,-0.8276,0.2617,0.3127,-0.5038,-2.9924,2.8779,108933
141,-0.8464,0.2554,0.3164,-2.0687,-1.4275,2.229,108953
142,-0.8452,0.2568,0.303,-2.2443,-2.4351,1.313,108973
143,-0.8422,0.2534,0.321,-2.3511,-2.6947,0.4198,108993
144,-0.8369,0.2585,0.3152,-3.9924,-4.2901,0.3969,109013
145,-0.8398,0.2334,0.3259,-4.5038,-3.855,0.0229,109033
146,-0.8378,0.248,0.3184,-3.0611,-3.2595,1.0382,109053
147,-0.8393,0.24,0.3137,-1.5649,-1.6489,2.2061,109073
148,-0.8459,0.241,0.3152,-0.9466,-2.3511,2.0229,109093
149,-0.8351,0.2539,0.3064,-1.7863,-2.9389,1.771,109113
150,-0.8361,0.2515,0.3049,-3.0076,-2.8244,-0.145,109133
151,-0.8498,0.2532,0.3152,-4.3817,-3.2901,0.1832,109153
152,-0.8449,0.2344,0.3252,-2.8397,-4.2366,0.2672,109173
153,-0.8298,0.2434,0.3091,-0.6947,-2.313,1.2595,109193
154,-0.8439,0.25,0.3252,0.4122,-0.5725,1.9466,109213
155,-0.8469,0.2595,0.3101,-0.5038,-2.1908,1.5344,109233
156,-0.8386,0.259,0.3035,-2.3817,-2.7863,0.9542,109253
157,-0.8442,0.252,0.3064,-2.6489,-2.3817,0.2672,109273
158,-0.85,0.2493,0.3113,-2.8168,-2.7863,0.4885,109293
159,-0.8469,0.2493,0.3096,-2.5038,-3.0382,0.9008,109313
160,-0.843,0.2532,0.321,-2.0076,-2.626,2.2748,109333
161,-0.8383,0.2485,0.3059,-1.4046,-1.8855,1.8779,109353
162,-0.8432,0.2603,0.2993,-2.0305,-1.458,2.0382,109373
163,-0.8557,0.2588,0.3049,-3.1069,-2.7786,0.9771,109393
164,-0.8495,0.2507,0.3147,-4.0916,-4.5344,0.7099,109413
165,-0.8278,0.2402,0.3174,-3.3511,-3.5038,1.1527,109433
166,-0.8329,0.2468,0.3174,-2.2519,-1.7481,2.0687,109453
167,-0.8491,0.2554,0.3147,-1.6107,-1.8168,1.4809,109473
168,-0.8491,0.2588,0.3149,-2.0382,-2.8397,1.5115,109493
169,-0.8513,0.2583,0.3159,-2.229,-3.626,0.9313,109513
170,-0.8386,0.2527,0.3088,-3.0687,-4.0229,0.8321,109533
171,-0.8278,0.2449,0.3076,-2.3893,-3.0305,0.8244,109553
172,-0.8391,0.2476,0.3149,-1.458,-2.0305,0.4733,109573
173,-0.8493,0.2478,0.3201,-1.2519,-3.0076,0.0611,109593
174,-0.8369,0.2563,0.324,-1.7481,-4.2366,0.458,109613
175,-0.8398,0.2534,0.3101,-3.3206,-2.0611,1.3435,109633
0,-0.196,0.03,1.0288,-1.1221,-1.855,-5.6183,117073
1,-0.0463,0.0566,0.8918,3.0076,1.2443,-3.3588,117093
2,-0.0417,0.0728,0.887,1.0992,1.2824,-4.6183,117113
3,-0.0261,0.0686,0.8972,-2.3588,0.8779,-2.916,117133
4,-0.0263,0.071,0.9221,-6.7176,0.2137,-1.6336,117153
5,-0.0319,0.0701,0.9055,-9.1374,-1.1221,0.4275,117173
6,-0.0432,0.0496,0.9045,-12.6489,-3.7557,1.1756,117193
7,-0.0463,0.0427,0.9209,-16.4046,-4.2977,-2.0458,117213
8,-0.0131,0.0454,0.9221,-21.8321,-5.313,-6.1374,117233
9,-0.3176,-0.5349,0.6021,-30.7176,-54.8015,-20.9466,117253
10,-0.0749,0.2776,0.9031,-32.4504,0.771,3.5496,117273
11,-0.0241,0.0037,0.9504,-56.7863,-4.5344,10.8626,117293
12,0.0621,0.0435,0.9221,-76.3664,0.1679,1.7863,117313
13,0.0635,-0.001,0.8896,-106.855,5.3053,4.4504,117333
14,0.0447,-0.1304,0.9014,-131.1145,13.8397,9.0076,117353
15,0.0098,-0.1987,0.9009,-147.4886,20.8626,14.8855,117373
16,0.0032,-0.25,0.885,-162.8321,26.4886,22.1374,117393
17,-0.0412,-0.3018,0.8274,-177.4809,32.4046,31.5267,117413
18,-0.0737,-0.4788,0.7659,-180.3359,38.0076,39.2061,117433
19,-0.1093,-0.6118,0.7144,-146.6488,45.4046,48.1679,117453
20,-0.1752,-0.5032,0.6787,-117.8244,47.1603,61.0687,117473
21,-0.2138,-0.3779,0.6306,-129.7939,46.0763,77.3053,117493
22,-0.2192,-0.4602,0.5647,-158.9771,43.1756,88.9695,117513
23,-0.2534,-0.5391,0.4626,-173.0076,39.9313,96.1374,117533
24,-0.2895,-0.5613,0.4089,-175.2137,33.5954,102.229,117553
25,-0.3437,-0.4697,0.3311,-182.5573,27.4198,111.4046,117573
26,-0.4116,-0.4253,0.2966,-196.2748,12.7405,119.2595,117593
27,-0.4099,-0.4878,0.1941,-203.3893,-3.6031,122.0382,117613
28,-0.4243,-0.4421,0.0657,-205.1527,-14.8626,125.5649,117633
29,-0.4323,-0.47,0.0056,-212.6565,-22.7405,129.0229,117653
30,-0.5202,-0.4636,-0.0037,-198.0611,-35.3588,132.2977,117673
31,-0.5495,-0.4509,-0.01,-167.0458,-50.2748,134.7939,117693
32,-0.5546,-0.3787,-0.0232,-130.6183,-61.5802,136.7786,117713
33,-0.5908,-0.2781,-0.0227,-100.6183,-68.7252,137.2901,117733
34,-0.5847,-0.178,-0.0212,-93.7099,-71.6031,135.542,117753
35,-0.6076,-0.2053,0.0027,-93.9237,-72.7863,125.8397,117773
36,-0.6437,-0.1609,0.0142,-79.6641,-72.3282,117.5725,117793
37,-0.6281,-0.1426,0.0139,-60.3511,-69.2748,112.8092,117813
38,-0.6574,-0.0627,0.0508,-54.7252,-66.5267,109.9771,117833
39,-0.6708,-0.043,0.0259,-59.7939,-64.9237,101.6107,117853
40,-0.6906,-0.0261,0.0369,-71.8168,-63.2595,93.2061,117873
41,-0.7277,-0.0117,0.054,-70.7939,-65.2595,87.3588,117893
42,-0.718,-0.0579,0.0369,-54.5115,-64.4122,82.6718,117913
43,-0.6987,-0.0134,0.0176,-38.8397,-57.6107,80.3969,117933
44,-0.7297,0.032,0.0527,-33.5115,-54.5649,77.7557,117953
45,-0.7602,0.0869,0.0815,-42.3893,-55.7328,73.6031,117973
46,-0.7441,0.1001,0.0627,-56.2366,-56.5802,66.9542,117993
47,-0.7702,0.0491,0.0859,-54.4504,-56.9466,62.5267,118013
48,-0.7619,0.0432,0.0935,-35.3359,-53.8015,63.0153,118033
49,-0.7665,0.0745,0.1167,-19.5267,-49.5267,64.3359,118053
50,-0.8022,0.176,0.1406,-23.8168,-48.0916,65.9084,118073
51,-0.798,0.1875,0.1418,-38.4656,-47.4809,61.0916,118093
52,-0.8061,0.1912,0.1592,-40.0153,-50.084,56.3206,118113
53,-0.8029,0.1895,0.1812,-29.0611,-49.1221,51.5344,118133
54,-0.8005,0.197,0.2065,-15.374,-46.4656,47.1756,118153
55,-0.7946,0.2639,0.209,-12.3511,-39.8397,44.5038,118173
56,-0.831,0.2686,0.2722,-22.855,-34.6947,38.8244,118193
57,-0.8173,0.2439,0.281,-24.8702,-32.6718,34.8168,118213
58,-0.8105,0.2703,0.2429,-19.3893,-30.1679,28.626,118233
59,-0.8076,0.2788,0.2227,-16.458,-25.771,22.8015,118253
60,-0.8332,0.2708,0.248,-15.7176,-20.3359,19.0382,118273
61,-0.8464,0.2563,0.2747,-15.9466,-17.2977,16.7405,118293
62,-0.8527,0.2759,0.2612,-13.6718,-15.0076,15.4809,118313
63,-0.8527,0.271,0.2495,-11.5115,-12.7405,13.1908,118333
64,-0.8613,0.3037,0.2156,-11.8397,-11.374,11.1679,118353
65,-0.8688,0.2607,0.2549,-14.916,-8.7634,10.9313,118373
66,-0.8654,0.241,0.2722,-12.3969,-7.1221,11.7099,118393
67,-0.8642,0.2588,0.2378,-7.0076,-6.9389,12.0229,118413
68,-0.8735,0.2957,0.239,-1.3511,-6.3817,11.1298,118433
69,-0.851,0.3301,0.2268,2.7328,-6.771,9.3588,118453
70,-0.8637,0.3311,0.2693,1.3282,-4.7099,5.4198,118473
71,-0.8561,0.3372,0.2754,-3.5115,-5.0611,2.6718,118493
72,-0.8547,0.2964,0.2607,-9.0534,-3.5954,0.5954,118513
73,-0.8605,0.2637,0.2454,-7.3435,-1.374,0.2519,118533
74,-0.8723,0.2739,0.2288,-5.3893,-1.7786,2.1069,118553
75,-0.8661,0.2808,0.2349,-4.4504,-2.7634,3.5191,118573
76,-0.8813,0.301,0.2283,-4.6183,-3.5573,3.1603,118593
77,-0.8727,0.3008,0.2256,-5.9237,-3.4885,2.4809,118613
78,-0.8806,0.2922,0.2322,-7.4198,-3.229,1.8855,118633
79,-0.8759,0.2881,0.2468,-5.4351,-4.084,1.7634,118653
80,-0.8679,0.2922,0.2456,-3.7328,-3.3664,2.0382,118673
81,-0.8654,0.2905,0.2432,-1.855,-2.2672,2.0763,118693
82,-0.8749,0.2969,0.2317,-3.5802,-2.2214,1.2137,118713
83,-0.873,0.2961,0.2275,-6.1069,-2.5725,0.916,118733
84,-0.8798,0.2769,0.241,-4.4885,-3,0.313,118753
85,-0.8764,0.2893,0.2405,-3.0992,-3.4504,1.0687,118773
86,-0.8735,0.2861,0.2446,-1.4427,-3.8473,1.771,118793
87,-0.8642,0.2852,0.2385,0.9313,-2.771,2.3511,118813
88,-0.8766,0.2886,0.2456,2.1985,-3.0153,2.0763,118833
89,-0.8681,0.3098,0.2288,-0.6565,-2.9924,2.1603,118853
90,-0.8869,0.2925,0.2405,-3.3435,-2.9313,0.7328,118873
91,-0.8671,0.2913,0.2334,-2.5954,-3.7099,0.9771,118893
92,-0.8735,0.2852,0.2366,-3.4962,-3.6107,0.4351,118913
93,-0.8688,0.2744,0.23,-2.0687,-3.9924,0.7863,118933
94,-0.8657,0.2732,0.2393,-2.0992,-2.5573,1.3359,118953
95,-0.8749,0.2859,0.2314,-0.2748,-3.2672,2.0611,118973
96,-0.8754,0.2957,0.2458,-1.1679,-3.2824,2.5573,118993
97,-0.8683,0.2998,0.2329,-1.1145,-3.2595,1.7481,119013
98,-0.8735,0.2922,0.2449,-2.0458,-2.3053,0.6107,119033
99,-0.873,0.3005,0.2449,-1.9389,-2.6489,0.0458,119053
100,-0.881,0.2959,0.2449,-3.7863,-2.7099,-0.2748,119073
101,-0.8747,0.2852,0.2332,-3.229,-3.0534,-0.0076,119093
102,-0.8757,0.2788,0.2417,-2.6412,-3.542,1.0153,119113
103,-0.8683,0.2915,0.2285,-1.1145,-4.1679,1.9771,119133
104,-0.8693,0.293,0.2256,-3.1069,-2.5649,1.5878,119153
105,-0.8774,0.2903,0.2461,-2.1069,-2.5191,1.1145,119173
106,-0.874,0.3008,0.2246,-3.5115,-2.8168,1.3206,119193
107,-0.883,0.2871,0.2476,-3.8473,-3.1374,0.687,119213
108,-0.8788,0.2981,0.2363,-3.7863,-4.7863,0.855,119233
109,-0.8749,0.2859,0.2288,-5.6183,-5.0763,0.5267,119253
110,-0.8703,0.2747,0.2317,-3.8702,-4.2672,0.8931,119273
111,-0.8737,0.2871,0.2412,-2.8015,-2.6031,2.0382,119293
112,-0.8701,0.2927,0.2515,-1.9618,-2.4733,2.3511,119313
113,-0.8688,0.3091,0.2395,-2.6947,-3.1221,1.7252,119333
114,-0.8757,0.3018,0.2412,-4.5267,-3.2977,0.4733,119353
115,-0.8796,0.2864,0.2346,-5.7405,-3.2137,0.1832,119373
116,-0.8764,0.2859,0.2314,-2.6336,-3.4427,0.7328,119393
117,-0.8764,0.2888,0.2415,-1.626,-3.0916,1.7023,119413
118,-0.874,0.2937,0.2505,-0.7252,-4,2.1603,119433
119,-0.8757,0.3042,0.2393,-2.9924,-4.6641,1.313,119453
120,-0.8708,0.2988,0.2295,-4.0611,-5.5191,0.4733,119473
121,-0.8664,0.2869,0.2246,-4.2214,-4.0382,0.6107,119493
122,-0.8786,0.2747,0.2373,-3.2901,-3.1527,1.145,119513
123,-0.8696,0.2839,0.2449,-2.0229,-2.8168,2.7786,119533
124,-0.871,0.2927,0.2434,-0.7786,-3.0992,2.916,119553
125,-0.8693,0.3042,0.2476,-1.7634,-3.1679,2.1832,119573
126,-0.8791,0.3027,0.229,-3.7023,-2.8015,0.8092,119593
127,-0.8786,0.2915,0.2354,-4.0534,-2.5344,0.5573,119613
128,-0.8757,0.2844,0.2422,-2.4275,-2.626,0.5954,119633
129,-0.8776,0.2893,0.2395,-1.542,-3.0763,1.6183,119653
130,-0.8759,0.2937,0.2415,-1.0534,-3.5496,1.8397,119673
131,-0.8696,0.3049,0.2366,-1.8473,-3.4427,1.4962,119693
132,-0.8688,0.2998,0.2471,-2.855,-2.7405,0.9389,119713
133,-0.871,0.2964,0.2295,-3.2519,-2.229,0.8168,119733
134,-0.8737,0.2815,0.2322,-1.9618,-2.3359,1.2977,119753
135,-0.8698,0.2925,0.2393,-0.5878,-2.8321,1.6107,119773
136,-0.8725,0.3069,0.2461,-1.8397,-3,1.5725,119793
137,-0.873,0.2998,0.2483,-2.7405,-2.7481,0.9084,119813
138,-0.8759,0.2952,0.2412,-2.9237,-2.3511,0.8626,119833
139,-0.8762,0.2942,0.2322,-2.8702,-2.5573,1.4427,119853
140,-0.8779,0.2896,0.2388,-2.2977,-2.6336,1.7176,119873
141,-0.8735,0.2896,0.2412,-0.8855,-3.5344,1.7023,119893
142,-0.872,0.2986,0.241,-0.3893,-4.1603,1.4656,119913
143,-0.8725,0.3025,0.2461,-1.0534,-3.3282,1.6031,119933
144,-0.8732,0.3022,0.2441,-0.8779,-2.6412,1.2672,119953
145,-0.8666,0.3071,0.2329,-2.542,-3.2214,1,119973
146,-0.8681,0.2966,0.2263,-3.3511,-4.5115,0.5573,119993
147,-0.8735,0.2905,0.2283,-4.2519,-4.7863,0.7786,120013
148,-0.8659,0.291,0.2478,-3.3511,-3.8931,1.4427,120033
149,-0.8701,0.2959,0.2524,-1.4733,-3.3053,2.3511,120053
150,-0.8713,0.2969,0.2554,-1.9771,-2.9313,2.8168,120073
151,-0.8747,0.2986,0.2441,-3.7557,-2.2443,2.2443,120093
152,-0.8825,0.3005,0.2361,-2.9237,-2.3435,1.8779,120113
153,-0.8727,0.3066,0.23,-2.7405,-3.1145,1.8397,120133
154,-0.8732,0.2886,0.2356,-2.6412,-2.7939,1.7023,120153
155,-0.8766,0.293,0.2505,-1.6641,-3.5954,1.542,120173
156,-0.871,0.3066,0.239,-2.3664,-3.1985,1.3817,120193
157,-0.874,0.2888,0.2542,-2.6031,-2.4733,1.2137,120213
158,-0.8779,0.2998,0.249,-1.0611,-2.3359,1.6947,120233
159,-0.8727,0.3052,0.2371,-0.771,-2.3664,1.8168,120253
160,-0.8745,0.3052,0.2388,-1.313,-3.5496,1.3664,120273
161,-0.8762,0.3027,0.2427,-1.7863,-3.8702,0.3893,120293
162,-0.8766,0.3059,0.239,-1.7786,-3.3359,0.771,120313
163,-0.8788,0.3066,0.2437,-1.7481,-3.4046,1.3053,120333
164,-0.8735,0.3176,0.2324,-2.4809,-3.1298,1.5496,120353
165,-0.8769,0.3015,0.2446,-3.5802,-3.3282,0.6336,120373
166,-0.8732,0.2971,0.2344,-2.7099,-3.9389,0.8321,120393
167,-0.8727,0.2998,0.2393,-2.2824,-4.4046,0.6794,120413
168,-0.8803,0.2988,0.2429,-3.5038,-4.1069,0.855,120433
169,-0.8776,0.2969,0.241,-2.9008,-3.1832,1.7023,120453
170,-0.8825,0.2949,0.2454,-1.1756,-3.1374,2.4427,120473
171,-0.8737,0.3079,0.2478,-1.1221,-3.9847,2.0916,120493
172,-0.8696,0.3145,0.2512,-2.9466,-4.0382,0.9847,120513
173,-0.8635,0.2935,0.2615,-2.4962,-3.9695,-0.1221,120533
174,-0.852,0.2878,0.2537,-1.9618,-3.0916,0.0916,120553
175,-0.8698,0.2812,0.229,-3.5878,-1.7099,0.3817,120573
0,0.1985,0.0937,0.6545,2.7405,12.7099,-2.8473,123053
1,0.0071,0.0706,0.8933,0.6183,-1.1374,-0.458,123073
2,0.0023,0.1069,0.9348,-1.9084,-2.4504,-1.8931,123093
3,0.0045,0.0937,0.9373,-2.2672,-3.4962,-0.9084,123113
4,0.0084,0.0884,0.9268,-2.4962,-4.0916,-1.9466,123133
5,0.0152,0.0986,0.9226,-3.9695,-5.145,0.0229,123153
6,-0.0019,0.0879,0.9429,-8.084,-6.5267,-1.7023,123173
7,0.0054,0.1069,0.9214,-11.7634,-6.0687,0.0687,123193
8,0.0316,0.0657,0.9041,-15.1298,-4.7557,0.6031,123213
9,0.1068,0.1445,0.9155,-17.626,-5.084,0.8015,123233
10,-0.0339,0.0491,0.8777,-13.9008,-1.6947,-5.6489,123253
11,0.0259,0.0376,0.8616,-8.0916,3.8168,-12.7405,123273
12,0.0106,0.0649,0.905,-7.5038,1.1374,-10.9466,123293
13,-0.0068,0.0649,0.9397,-12.8244,-0.2748,-8.7252,123313
14,0.0086,0.1023,0.9355,-25.2366,-1.6183,-8.9313,123333
15,0.0635,0.1665,0.8533,-17.771,7.6565,-5.229,123353
16,0.0203,0.0393,0.887,-13.8779,9.3664,3.9237,123373
17,-0.0065,0.0283,0.9177,-14.7481,5.1756,4.374,123393
18,0.0377,0.0728,0.8989,-17.145,3.5344,-0.2595,123413
19,0.0201,0.064,0.897,-22.1756,3.9008,0,123433
20,-0.0085,0.0474,0.8848,-26.5496,4.9008,-1.5573,123453
21,0.0201,0.0029,0.8572,-21.5496,7.4275,-3.6336,123473
22,-0.0121,-0.0159,0.9216,-16.4275,3.8702,-4.145,123493
23,-0.0173,-0.0044,0.8916,-13.0305,2.9389,-3.1527,123513
24,-0.0085,-0.0061,0.873,-13.1679,4.2214,-2.4427,123533
25,-0.0182,-0.021,0.8682,-11.7405,4.3053,-1.9924,123553
26,-0.0168,-0.0112,0.8689,-7.6718,2.6489,-2.5573,123573
27,-0.0453,-0.0278,0.9243,-4.1298,-1.4962,-2.2824,123593
28,-0.0102,-0.0547,0.8867,-2.4504,-0.0687,-5.458,123613
29,-0.0056,-0.0491,0.8967,0,0.4962,-7.6641,123633
30,-0.0126,0.0164,0.8774,-3.1908,0.5115,-9.084,123653
31,-0.0368,0.0049,0.8855,-5.7481,-2.084,-5.2595,123673
32,-0.0429,-0.0181,0.8809,-1.2672,-6.6641,-2.3511,123693
33,-0.0241,-0.0376,0.8882,2.229,-6.916,-2.4351,123713
34,-0.0139,-0.0344,0.9165,1.2672,-6.6947,-5.458,123733
35,-0.0126,0.0093,0.9172,-2.7023,-7.9313,-7.145,123753
36,-0.0236,0.0137,0.9092,-7.0534,-11.6641,-7.9237,123773
37,-0.0053,0.04,0.8574,-8.9237,-13.1527,-6.6031,123793
38,-0.0053,0.0122,0.8494,-8.145,-13.2443,-4.9466,123813
39,-0.0004,0.0393,0.8425,-9.1298,-14.0916,-3.145,123833
40,0.0215,0.0183,0.8457,-11.7176,-13.1374,-0.3893,123853
41,0.0496,-0.009,0.8313,-12.0916,-11.3588,0.8855,123873
42,0.0359,-0.0349,0.8442,-7.3511,-9.8321,1.6412,123893
43,0.0374,-0.0083,0.8452,-7.1985,-6.6565,1.4275,123913
44,0.0286,0.0308,0.8647,-6.9695,-6.2748,1.3817,123933
45,0.0489,-0.009,0.8547,-9.3817,-3.7176,2.0763,123953
46,0.0181,0.0007,0.8684,-10.7023,-3.0992,2.0992,123973
47,0.0357,-0.0146,0.8738,-12.7405,-1.7557,1.458,123993
48,0.0596,0.0269,0.8423,-19.626,0.3206,2.5878,124013
49,0.0401,0.0166,0.8711,-29.3893,0.4275,3.2672,124033
50,0.0674,0.0625,0.886,-38.4656,4.8244,1.7939,124053
51,0.0894,-0.0417,0.8979,-55.9618,-0.145,2.2977,124073
52,0.0648,-0.0146,0.8999,-76.1985,2.1374,2.1985,124093
53,0.0714,-0.0596,0.8276,-89.855,1.542,3.0229,124113
54,0.0347,-0.0889,0.7847,-95.145,1.0687,4.9466,124133
55,0.0386,-0.1111,0.7568,-97.2366,0.0382,8.0763,124153
56,0.045,-0.1262,0.7158,-109.3664,2.4504,11.5649,124173
57,0.033,-0.2,0.7251,-126.229,5.8168,13.6489,124193
58,0.032,-0.2747,0.6804,-137.6641,8.6565,14.1527,124213
59,0.0274,-0.3511,0.6414,-138.0458,11.1374,16.5267,124233
60,0.0276,-0.3887,0.6096,-134.916,14.7557,20.3511,124253
61,0.0325,-0.4065,0.5669,-141.626,17.9695,25.313,124273
62,0.0296,-0.46,0.5425,-153.4427,19.7481,29.3893,124293
63,0.023,-0.5479,0.5034,-157.7405,21.3664,36.2595,124313
64,-0.0378,-0.5659,0.4492,-157.1985,21.9618,45.0305,124333
65,-0.0417,-0.6309,0.386,-157.1832,20.9847,54.1298,124353
66,-0.0361,-0.6736,0.3416,-158.0458,23.9389,62.7176,124373
67,-0.1374,-0.6667,0.3145,-154.7557,23.8473,73.9695,124393
68,-0.197,-0.6453,0.2585,-151.5496,19.6489,81.6183,124413
69,-0.2409,-0.6274,0.2009,-148.5191,14.3969,87.6412,124433
70,-0.2883,-0.6494,0.2012,-139.2672,6.3282,93.1679,124453
71,-0.2763,-0.6438,0.1221,-126.2366,2.5878,100.9008,124473
72,-0.3185,-0.6011,0.0698,-118.9313,1.084,107.4122,124493
73,-0.3762,-0.5764,0.0605,-111.9237,-2.4046,111.2595,124513
74,-0.4404,-0.5269,0.0315,-104.1756,-11.3664,114,124533
75,-0.4496,-0.4956,-0.0046,-98.3282,-20.7252,115.1221,124553
76,-0.4372,-0.4924,-0.0449,-92.9313,-26.2672,119.7023,124573
77,-0.4775,-0.4514,-0.0742,-83.7481,-28.8779,121.626,124593
78,-0.4675,-0.4839,-0.0908,-68.4962,-28.5725,122.1374,124613
79,-0.4482,-0.4788,-0.123,-47.5649,-28.7405,122.4733,124633
80,-0.5566,-0.356,-0.1094,-34.9847,-34.0229,131.8473,124653
81,-0.6008,-0.2649,-0.1428,-39.5954,-41.626,133.7786,124673
82,-0.6765,-0.2007,-0.1375,-49.8931,-48.3435,132.2901,124693
83,-0.6542,-0.2092,-0.136,-56.855,-51.7176,128.6488,124713
84,-0.7216,-0.1523,-0.0686,-53.7099,-55.9618,126.626,124733
85,-0.6943,-0.1216,-0.0632,-43.1985,-58.2595,125.2443,124753
86,-0.7331,-0.0142,-0.0615,-34,-58.3435,123.1832,124773
87,-0.7336,0.0034,-0.0444,-39.9618,-55,116.9084,124793
88,-0.7548,0.0732,-0.03,-49.8779,-55.0534,110.8931,124813
89,-0.7421,0.0273,-0.0151,-56.3969,-53.084,104.3969,124833
90,-0.7617,0.0125,-0.012,-46.3588,-52.2214,100.4962,124853
91,-0.7844,0.123,-0.0103,-36.145,-51.3969,98.4504,124873
92,-0.7958,0.1772,0.0085,-44.4351,-50.1221,94.2824,124893
93,-0.8117,0.1782,0.0159,-54.9771,-50.0458,88.5802,124913
94,-0.8027,0.1152,0.0107,-54.3435,-47.8473,82.5115,124933
95,-0.8051,0.1096,-0.0037,-39.1221,-44.8931,81.0153,124953
96,-0.8217,0.1614,0.0156,-22.6565,-43.542,82.2901,124973
97,-0.8557,0.2512,0.0361,-21.1374,-45.6718,82.9618,124993
98,-0.862,0.2744,0.0623,-23.6412,-47.4427,80.2214,125013
99,-0.8342,0.3027,0.05,-24.5725,-49.3969,76.1603,125033
100,-0.8327,0.3098,0.0613,-17.4809,-47.7481,71.4046,125053
101,-0.8183,0.3328,0.0701,-12.3435,-44.145,67.7023,125073
102,-0.8283,0.3669,0.1082,-11.1603,-40.7099,60.9924,125093
103,-0.8515,0.4207,0.1477,-10.1603,-43.0305,56.3969,125113
104,-0.8137,0.4155,0.0935,-13.2443,-40.8244,53.1908,125133
105,-0.8012,0.4207,0.1077,-7.2595,-32.313,46.7634,125153
106,-0.7975,0.4424,0.1523,-2,-23.5954,40.4885,125173
107,-0.8303,0.4973,0.2397,0.7634,-20.7405,34.7328,125193
108,-0.8229,0.5369,0.1545,-4.3588,-21.6107,30.8931,125213
109,-0.7983,0.5444,0.0466,-16.5344,-13.3664,27.7099,125233
110,-0.8698,0.4402,0.1787,-25.855,-9.1985,24.9466,125253
111,-0.8832,0.4539,0.2107,-18.3511,-9.4962,23.9618,125273
112,-0.8945,0.4839,0.1758,-14.4427,-11.5344,24.3359,125293
113,-0.9091,0.4956,0.2031,-16.8168,-16.6947,22.2061,125313
114,-0.9462,0.4412,0.134,-16.7405,-10.7786,18.8931,125333
115,-0.9318,0.4656,0.2322,-4.8931,-9.2748,16.7939,125353
116,-0.9125,0.4844,0.2449,6.1527,-7.8626,16.313,125373
117,-0.9018,0.5063,0.2393,7.313,-7.145,13.916,125393
118,-0.8867,0.5217,0.2109,3.3588,-6.4275,9.7481,125413
119,-0.8764,0.4995,0.1877,-2.3435,-7.3893,4.855,125433
120,-0.8749,0.4792,0.2,-2.2977,-6.8015,1.7099,125453
121,-0.8713,0.4648,0.2043,3.0534,-6.4885,0.7023,125473
122,-0.8791,0.4836,0.1904,11.0992,-4.8779,2.3817,125493
123,-0.8754,0.519,0.1792,12.0382,-3.4122,4.6031,125513
124,-0.8781,0.5386,0.1895,6.9924,-3.855,3.9695,125533
125,-0.892,0.5371,0.1938,1.3053,-4.5496,1.626,125553
126,-0.9067,0.5298,0.1982,-1.3511,-5.1832,-1.084,125573
127,-0.8969,0.5134,0.1914,0.542,-5.4351,-2.458,125593
128,-0.8923,0.509,0.1794,0.4046,-4.855,-0.9389,125613
129,-0.8911,0.5029,0.1819,-1.7557,-3.5878,0.0611,125633
130,-0.8889,0.5098,0.2009,-2.5878,-2.4122,1.2519,125653
131,-0.8874,0.5149,0.1882,-2.7481,-3.1679,1.3359,125673
132,-0.8891,0.5259,0.1941,-3.3817,-3.4275,0.1603,125693
133,-0.895,0.5203,0.1895,-5.7863,-4.1069,-1.5115,125713
134,-0.8937,0.4917,0.1785,-5.6336,-4.0611,-1.8244,125733
135,-0.8915,0.4824,0.1943,-2.0534,-3.2061,-0.2824,125753
136,-0.8918,0.4985,0.196,-1.1756,-3.687,1.7176,125773
137,-0.8903,0.5081,0.1897,-1.1603,-2.687,3.1069,125793
138,-0.8962,0.5164,0.1799,-1.5954,-2.7863,2.7481,125813
139,-0.8991,0.5164,0.1743,-2.8397,-2.7786,1.5038,125833
140,-0.9001,0.5137,0.1826,-3.3969,-3.7481,0.5344,125853
141,-0.893,0.5139,0.1963,-2.2519,-4.4656,-0.3435,125873
142,-0.8874,0.5151,0.2021,-1.5725,-4.6031,-0.1374,125893
143,-0.8823,0.511,0.1799,-1.771,-3.3359,-1.0687,125913
144,-0.8745,0.4949,0.1931,-2.5191,-0.9924,-1.9466,125933
145,-0.8976,0.4961,0.1912,-2.2519,0.4351,-1.4046,125953
146,-0.9006,0.4993,0.199,-2.8779,0.2748,-0.5344,125973
147,-0.9045,0.5063,0.1824,-4.7786,-0.7481,1.5878,125993
148,-0.902,0.4932,0.1658,-3.8779,-1.374,2.4046,126013
149,-0.8996,0.5085,0.1882,-1.6336,-1.2977,3.2672,126033
150,-0.8984,0.5229,0.1934,-3.2824,-2.0382,2.6031,126053
151,-0.8981,0.5088,0.1892,-4.4504,-2.4656,0.3817,126073
152,-0.9045,0.5154,0.1948,-4.5802,-3.2137,0.084,126093
153,-0.8981,0.5002,0.1909,-4.6641,-5.0992,-0.2977,126113
154,-0.8913,0.4834,0.1848,-2.9847,-3.9542,0.8168,126133
155,-0.884,0.4971,0.2043,-0.6794,-3.5496,1.4275,126153
156,-0.8845,0.498,0.1956,-0.1145,-2.8702,0.771,126173
157,-0.8886,0.5015,0.21,-0.3817,-2.4809,-0.5573,126193
158,-0.8898,0.5154,0.176,-3.4656,-2.2748,-1.4733,126213
159,-0.8906,0.4814,0.1863,-1.9924,-1.3282,-2.1985,126233
160,-0.8969,0.5139,0.1843,-0.9008,-2.5573,-0.1908,126253
161,-0.8979,0.4905,0.1902,-3.7557,-3.5191,1.0458,126273
162,-0.8952,0.4885,0.1843,-1.3893,-3.4885,1.4733,126293
163,-0.8989,0.5129,0.188,-0.5649,-3.0916,1.4275,126313
164,-0.9008,0.521,0.1831,-1.542,-4.145,0.2901,126333
165,-0.8952,0.5117,0.1726,-3.8702,-4.8321,-1.0305,126353
166,-0.8996,0.4883,0.1765,-3.6412,-3.6412,-0.8397,126373
167,-0.8913,0.4973,0.1885,-1.3435,-4.0382,1.0305,126393
168,-0.8947,0.5012,0.1997,-1.5878,-5.4427,1.6489,126413
169,-0.8867,0.5098,0.1946,-2.4198,-5.5725,0.8855,126433
170,-0.8879,0.5061,0.1882,-3.3053,-4.9542,0.2137,126453
171,-0.8828,0.4871,0.1863,-2.626,-3.4198,-1.2977,126473
172,-0.8935,0.4944,0.1855,-0.6183,-2.5802,-1.4962,126493
173,-0.8842,0.4871,0.1929,0.8473,-3.4198,-1.0763,126513
174,-0.8998,0.498,0.1863,2.5191,-3.1221,0.542,126533
175,-0.9003,0.512,0.1997,0.3206,-4.6489,0.7176,126553
0,-0.3159,-0.063,1.0874,2.1374,7.9466,-10.7023,129033
1,-0.0253,0.0237,0.8821,3.7863,4.5878,-8.1908,129053
2,-0.0285,0.0054,0.8972,2.2824,1.9847,-6.1145,129073
3,-0.0229,0.0198,0.8958,-3.3817,0.7328,-4.7023,129093
4,-0.0187,0.0132,0.8823,-7.4046,-1.4809,-0.5038,129113
5,-0.0219,0.0007,0.8828,-8.6107,-4.1832,3.4733,129133
6,-0.0275,-0.0142,0.9045,-9.1679,-7.4962,4.3893,129153
7,-0.0258,-0.0183,0.9021,-9.7252,-10.3359,4.0916,129173
8,-0.018,-0.0198,0.9006,-11.4809,-11.9695,4.6565,129193
9,0.1273,0.6497,1.3098,-28.2901,-14.5344,20.9847,129213
10,0.0418,-0.0015,0.8127,-17.8092,-8.7099,8.1603,129233
11,0.0377,0.0464,0.8481,-28.1756,-10.8244,11.9389,129253
12,0.002,-0.0457,0.9182,-25.1069,-3.6794,12.7863,129273
13,0.0008,0.01,1.0366,-48.0382,-3.4198,6.4275,129293
14,0.0374,-0.001,0.9429,-83.7634,-7.771,2.2061,129313
15,0.055,0.0176,0.8071,-110.0153,-7.7939,-0.7023,129333
16,0.0325,0.0583,0.7476,-147.229,-9.687,4.3359,129353
17,0.0848,-0.157,0.7131,-163.8702,-5.1832,9.0229,129373
18,0.0933,-0.2942,0.7271,-166.5114,5.0305,14.0153,129393
19,0.0665,-0.3657,0.7102,-165.6718,14.6336,17.4122,129413
20,0.0067,-0.3823,0.6846,-177.6183,20.9084,23.3893,129433
21,-0.0241,-0.4119,0.6016,-202.2672,24.6031,31.8015,129453
22,-0.0432,-0.5286,0.511,-220.3512,28.4122,39.9771,129473
23,-0.0886,-0.6187,0.4514,-224.5725,31.7481,47.1832,129493
24,-0.1193,-0.6699,0.3455,-221.9924,31.7252,56,129513
25,-0.1911,-0.7236,0.3008,-208.0916,24.3282,67.4809,129533
26,-0.1928,-0.7563,0.209,-186.7939,13.6489,79.0229,129553
27,-0.2468,-0.6611,0.1211,-171.6107,1.5115,93.8244,129573
28,-0.2873,-0.6582,0.0762,-165.4198,-11.084,105.687,129593
29,-0.3166,-0.6375,0.0356,-159.9237,-23.6183,112.0382,129613
30,-0.3337,-0.5986,-0.0303,-154.3206,-31.7099,115.687,129633
31,-0.3791,-0.563,-0.0806,-145.3053,-35.6565,118.9466,129653
32,-0.3976,-0.5417,-0.0869,-135.7176,-38.8321,120.313,129673
33,-0.4348,-0.4517,-0.1008,-125.7252,-43.7328,122.1069,129693
34,-0.4074,-0.4333,-0.1328,-124.1527,-48.4351,118.6412,129713
35,-0.434,-0.407,-0.1318,-124.2137,-53.6489,116.3359,129733
36,-0.4499,-0.417,-0.1411,-118.0611,-57.7405,109.4809,129753
37,-0.4965,-0.3921,-0.1455,-101.0458,-66.5191,111.2443,129773
38,-0.5024,-0.3325,-0.1377,-87.229,-71.9313,106.3893,129793
39,-0.5261,-0.3154,-0.123,-80.5725,-76.3511,106.5954,129813
40,-0.5405,-0.2815,-0.1174,-71.2061,-75.8092,105.5115,129833
41,-0.5358,-0.2769,-0.1277,-61.2901,-72.8473,103.7634,129853
42,-0.5795,-0.2334,-0.1189,-51.6412,-73.0916,103.7557,129873
43,-0.6005,-0.1426,-0.1458,-55.6489,-75.1679,103.771,129893
44,-0.6647,-0.1021,-0.1196,-68.5802,-78.2672,101.6489,129913
45,-0.6559,-0.1392,-0.1416,-66.3511,-79.9084,96.5649,129933
46,-0.6965,-0.1018,-0.1155,-46.0382,-79.2748,94.5496,129953
47,-0.6701,-0.0818,-0.1042,-32.4427,-77.1527,96.7328,129973
48,-0.7133,0.0037,-0.0642,-23.0534,-77.4733,99.1069,129993
49,-0.7355,0.0591,-0.0454,-28.4733,-78.4885,99.1908,130013
50,-0.7441,0.0835,-0.0173,-34.3435,-78.687,96.4198,130033
51,-0.7304,0.0537,-0.0012,-29.7786,-78.5649,87.687,130053
52,-0.7538,0.1179,0.0249,-19.6031,-74.2443,85.626,130073
53,-0.7431,0.1392,0.0596,-16.229,-69.8473,85.0611,130093
54,-0.7766,0.1438,0.1167,-11.9466,-65.3053,88.145,130113
55,-0.7897,0.1982,0.1321,-7.5038,-61.458,88.2519,130133
56,-0.7768,0.2659,0.1165,-10.7557,-57.1145,82.3359,130153
57,-0.8178,0.3044,0.1399,-14.6031,-51.8092,75.3893,130173
58,-0.8315,0.3408,0.1633,-13.916,-49.2977,71.5191,130193
59,-0.8278,0.3323,0.1707,-10.0687,-48.4809,69.3817,130213
60,-0.8278,0.3801,0.175,-8.6031,-45.1298,64.8015,130233
61,-0.8163,0.4006,0.1379,-15.7023,-38.1145,57.9313,130253
62,-0.8759,0.3704,0.1875,-12.7863,-33.3588,48.3511,130273
63,-0.8754,0.4153,0.2148,-3.4198,-35.145,45.7328,130293
64,-0.8781,0.447,0.2166,-3.7023,-36.2595,44.1527,130313
65,-0.8766,0.4521,0.2202,-9.4504,-33.374,41.313,130333
66,-0.5859,0.4651,-0.1931,13.5115,-54.1756,2.4046,130353
67,-0.9797,0.4685,0.2004,2.0534,-23.2901,19.3206,130373
68,-0.8129,0.5051,0.2114,11.4733,-20.3282,19.9237,130393
69,-0.884,0.5083,0.2668,23.0687,-7.5267,16.9389,130413
70,-0.8845,0.511,0.2544,24.7863,-5.6565,11.8015,130433
71,-0.8727,0.5266,0.2283,17.2137,0.5038,8.3282,130453
72,-0.8903,0.5103,0.2258,4.4504,-0.2214,4.1908,130473
73,-0.902,0.4705,0.2122,-2.626,-2.5267,2.2366,130493
74,-0.8884,0.4495,0.2012,-1.9389,-3.9695,1.1985,130513
75,-0.8864,0.439,0.2192,3.1603,-3.3664,3.2519,130533
76,-0.8798,0.4497,0.2119,8.6031,-2.2595,7.5954,130553
77,-0.8823,0.4697,0.2178,7.3206,-1.3053,8.8473,130573
78,-0.8874,0.4885,0.2239,1.3282,-1.6031,7.0076,130593
79,-0.8852,0.4714,0.2258,-2.5344,-1.8626,3.3817,130613
80,-0.8862,0.4543,0.2234,1.4198,-2.6718,1.084,130633
81,-0.8849,0.4668,0.2244,4.3511,-3.5725,1.5115,130653
82,-0.8879,0.4814,0.2151,0.0229,-3.8626,1.0916,130673
83,-0.8854,0.4619,0.2187,-3.145,-3.4427,-0.458,130693
84,-0.8918,0.449,0.2163,-2.6641,-3.6107,-0.7481,130713
85,-0.8898,0.4526,0.2019,-2.4351,-3.2519,-0.4275,130733
86,-0.895,0.4426,0.2153,-3.6183,-3.2061,-0.6641,130753
87,-0.8903,0.4375,0.2163,-3.855,-2.084,0.7176,130773
88,-0.9016,0.4336,0.2246,-0.458,-2.3969,2.6489,130793
89,-0.8906,0.4658,0.2139,-1.0916,-2.6336,4.5344,130813
90,-0.8903,0.4514,0.2107,-0.9924,-2.2137,4.1145,130833
91,-0.8849,0.4622,0.207,-0.5344,-1.855,3,130853
92,-0.8976,0.4573,0.2107,-0.3893,-1.1374,2.7176,130873
93,-0.8989,0.457,0.2214,-0.2977,-1.771,3.8244,130893
94,-0.8964,0.467,0.2192,-0.8702,-2.9695,4.855,130913
95,-0.9062,0.4575,0.217,-0.313,-4.1298,6.3282,130933
96,-0.8903,0.4661,0.1975,0.6794,-2.7328,6.8321,130953
97,-0.8925,0.4788,0.2175,1.0382,-2.8473,6.7023,130973
98,-0.8864,0.4846,0.2129,-1.0763,-3.3893,5.4733,130993
99,-0.8947,0.4822,0.2102,-3.0076,-3.9313,4.2137,131013
100,-0.8823,0.478,0.1992,-2.8092,-4.2748,3.4046,131033
101,-0.8906,0.4797,0.2109,-2.084,-4.0534,2.9237,131053
102,-0.8898,0.4961,0.2141,-2.2595,-3.2443,3.229,131073
103,-0.8891,0.4829,0.2173,-3.1985,-3.4885,2.9924,131093
104,-0.8886,0.4858,0.2187,-2.7328,-3.5725,2.458,131113
105,-0.8869,0.4883,0.2166,-3.2672,-3.5725,1.9695,131133
106,-0.8911,0.4751,0.2063,-3.5725,-3.4885,1.5954,131153
107,-0.8881,0.479,0.2124,-1.3817,-2.5496,1.7634,131173
108,-0.8879,0.4929,0.2104,-0.7023,-2.6718,1.8015,131193
109,-0.8864,0.4934,0.209,-2.626,-3.0611,0.916,131213
110,-0.8915,0.4731,0.2107,-4.2901,-3.4504,-0.7634,131233
111,-0.895,0.4636,0.2117,-3.1908,-3.542,-1.1069,131253
112,-0.8871,0.4626,0.2151,-1.3206,-3.0687,0.0382,131273
113,-0.8803,0.46,0.2202,0.9466,-2.3588,1.6794,131293
114,-0.8876,0.481,0.2185,1.6641,-2.2977,2.6947,131313
115,-0.8901,0.4919,0.2107,0.3893,-3,1.8015,131333
116,-0.8876,0.4946,0.2009,-1.542,-3.2672,0.3588,131353
117,-0.8908,0.4766,0.2102,-1.6718,-3.1985,-0.542,131373
118,-0.8849,0.4761,0.2175,-1.3893,-2.9771,0.6565,131393
119,-0.8923,0.467,0.2214,-1.145,-2.3969,2.0534,131413
120,-0.8879,0.4873,0.2185,0.7863,-2.0153,2.5802,131433
121,-0.8937,0.5,0.21,-0.0611,-2.3282,1.9084,131453
122,-0.8913,0.4844,0.2036,-2.3206,-2.4351,0.5802,131473
123,-0.9018,0.4702,0.2185,-2.1985,-2.8931,0.5115,131493
124,-0.8935,0.4583,0.2234,0.1679,-3.7176,2.1908,131513
125,-0.882,0.4822,0.2231,1.5649,-3.9466,3.3817,131533
126,-0.8815,0.4941,0.218,-0.0153,-2.5573,3.6412,131553
127,-0.8908,0.4866,0.2205,-2.2519,-2.4122,3.0992,131573
128,-0.8893,0.4827,0.2131,-4.3359,-2.3588,2.6412,131593
129,-0.895,0.4736,0.2107,-4.6489,-2.6183,3.1603,131613
130,-0.8903,0.48,0.2114,-3,-2.3053,3.4809,131633
131,-0.8906,0.4893,0.219,-3.1527,-2.4351,3.5954,131653
132,-0.8832,0.4946,0.2148,-4.4351,-3.1603,1.6794,131673
133,-0.8793,0.4958,0.2036,-5.8779,-2.7939,-0.0076,131693
134,-0.8847,0.4744,0.197,-4.0076,-2.771,-1.2901,131713
135,-0.8954,0.4868,0.2122,-1.5344,-3.0763,-0.5573,131733
136,-0.8845,0.4951,0.2283,-0.313,-3.9847,-0.6565,131753
137,-0.8884,0.5068,0.2151,0.2061,-3.5954,-0.4427,131773
138,-0.9018,0.4978,0.2187,-0.7863,-3.5802,-0.8855,131793
139,-0.8989,0.4885,0.2178,-1.916,-4.7252,-0.0229,131813
140,-0.883,0.4875,0.2173,-2.1756,-5.1679,1.6718,131833
141,-0.8774,0.4917,0.2122,-2.229,-3.4275,2.458,131853
142,-0.8842,0.4954,0.2271,-4.5191,-2.8092,2.4809,131873
143,-0.8908,0.4915,0.2144,-7.0458,-2.1908,1.7786,131893
144,-0.8884,0.4746,0.2151,-7.4198,-2.0687,1.1145,131913
145,-0.893,0.4768,0.2151,-5.6183,-2.3664,1.0153,131933
146,-0.8854,0.4644,0.219,-4.5954,-2.4122,1.5496,131953
147,-0.8793,0.4802,0.2161,-3.6718,-2.7786,1.7252,131973
148,-0.8874,0.4878,0.2178,-3.916,-3.458,1.2443,131993
149,-0.8893,0.4873,0.209,-4.6489,-4.0763,-0.7939,132013
150,-0.894,0.4832,0.2231,-2.2901,-3.9618,-1.4046,132033
151,-0.8864,0.4824,0.217,-1.7634,-3.5725,-0.6031,132053
152,-0.8932,0.4727,0.2263,-1.7634,-2.6107,0.7634,132073
153,-0.8867,0.4766,0.2148,-1.7328,-3.0382,1.3206,132093
154,-0.8852,0.4805,0.2239,-1.2519,-3.1145,0.8855,132113
155,-0.8849,0.4878,0.2139,-1.5725,-2.5649,-0.1221,132133
156,-0.9018,0.4883,0.2227,-2.5267,-3.2824,-1.0916,132153
157,-0.8954,0.4675,0.2217,-2.5115,-3.9924,-0.9924,132173
158,-0.8908,0.47,0.2217,-0.6947,-4.3817,0.0611,132193
159,-0.8842,0.4844,0.2139,0.0916,-3.9084,1.1908,132213
160,-0.8925,0.5039,0.2075,-1.1298,-3.6412,1.3817,132233
161,-0.8842,0.4968,0.2114,-3.1145,-4.145,0.6183,132253
162,-0.8779,0.4849,0.2224,-3.9466,-3.4122,0.2061,132273
163,-0.8798,0.4866,0.217,-4.4122,-2.8015,0.2061,132293
164,-0.895,0.4741,0.2229,-5.0229,-2.3817,0.3817,132313
165,-0.8974,0.4687,0.2273,-3.229,-2.626,0.9695,132333
166,-0.8906,0.4827,0.2317,-2.4504,-3.6412,0.855,132353
167,-0.8808,0.4802,0.2271,-3.2595,-3.7176,0.5267,132373
168,-0.8869,0.468,0.2244,-3.9924,-2.4122,0.6489,132393
169,-0.8913,0.4617,0.2053,-2.374,-2.6031,0.9389,132413
170,-0.8976,0.4749,0.2136,-1.6107,-3.7939,0.771,132433
171,-0.8886,0.4927,0.2104,-1.7557,-4.8779,0.8321,132453
172,-0.8801,0.4758,0.2173,-2.7481,-3.8092,0.084,132473
173,-0.8786,0.4714,0.2163,-2.4198,-2.9084,0.3435,132493
174,-0.8842,0.4644,0.2114,-2.3664,-2.374,0.5267,132513
175,-0.882,0.4756,0.2017,-0.9847,-2.7939,0.9313,132533
0,-0.0253,-0.0554,0.8259,-1.1908,-2.5191,-2.8473,140773
1,-0.0756,-0.1069,0.8218,0.0611,1.6565,-1.8626,140793
2,-0.059,-0.0876,0.8125,-0.0534,1.3588,-0.0458,140813
3,-0.0641,-0.0703,0.8149,-0.855,0.1221,0.8244,140833
4,-0.0627,-0.0735,0.834,-1.9542,-1.0153,1.0687,140853
5,-0.0734,-0.0767,0.8713,-5.5344,-5.0687,-0.0687,140873
6,-0.0712,-0.0688,0.8535,-10.1069,-8.8092,-0.5878,140893
7,-0.0529,-0.1196,0.8572,-10.9924,-11.3893,-3.0458,140913
8,0.6046,0.0667,0.4863,-9.7405,-2.0611,10.6947,140933
9,-0.0444,-0.1084,0.8542,-11.145,-14.6107,-3.3053,140953
10,-0.0566,-0.0254,0.8296,-14.1908,-7.3206,4.6947,140973
11,-0.0978,-0.0251,0.908,-22.6031,-16.0687,-0.4656,140993
12,-0.0908,-0.1108,1.0386,-34.1908,-25.4809,-4.3969,141013
13,-0.0131,-0.1389,0.9993,-55.5725,-30.771,-8.7634,141033
14,0.1138,-0.0652,0.7351,-94.4427,-20.7405,-6.4962,141053
15,0.043,-0.0566,0.7029,-118.3664,-10.6412,0.6641,141073
16,0.0997,-0.1475,0.637,-121.7023,-7.8321,6.4046,141093
17,0.0836,-0.0896,0.6545,-138.4275,-3.2824,12.5496,141113
18,0.0894,-0.1943,0.6567,-182.9008,-0.4198,19.855,141133
19,0.0594,-0.4285,0.6335,-193.9695,3.9237,25.145,141153
20,0.0106,-0.4956,0.5825,-177.7481,12.3511,30.687,141173
21,-0.0292,-0.5471,0.5579,-163.2519,18.8092,34.8473,141193
22,-0.0334,-0.5291,0.5029,-167.8244,29.8626,43.0076,141213
23,-0.1013,-0.5569,0.4521,-184.3053,36.1756,52.1908,141233
24,-0.1574,-0.6414,0.3994,-192.0687,35.7863,60.5344,141253
25,-0.1877,-0.6851,0.3159,-189.1145,33.542,70.7786,141273
26,-0.2026,-0.7078,0.2283,-181.8321,29.9695,81.2214,141293
27,-0.2402,-0.7219,0.1362,-169.3206,28.6183,89.7939,141313
28,-0.2775,-0.6667,0.0771,-163.7176,24.7023,100.7939,141333
29,-0.3405,-0.6589,0.042,-157.0611,15.5496,105.8702,141353
30,-0.3659,-0.6335,-0.0305,-138.7786,2.7099,112.9008,141373
31,-0.3771,-0.6152,-0.0957,-113.084,-4.626,122.0229,141393
32,-0.4025,-0.5586,-0.1052,-86.458,-8.2824,132.2443,141413
33,-0.4077,-0.5085,-0.1147,-71.2824,-14.2137,135.0305,141433
34,-0.4538,-0.4424,-0.0901,-64.0916,-20.9237,136.3359,141453
35,-0.4357,-0.3564,-0.1396,-72.0076,-27.542,136.7328,141473
36,-0.5036,-0.3442,-0.1421,-79.1298,-34.9008,133.3053,141493
37,-0.5217,-0.3496,-0.1079,-75.4046,-39.0687,129.7023,141513
38,-0.5449,-0.2927,-0.0918,-58.2061,-47.6947,126.7176,141533
39,-0.5568,-0.2107,-0.1147,-45.7481,-53.771,124.0305,141553
40,-0.5422,-0.2141,-0.1541,-43.9771,-54.6794,119.0229,141573
41,-0.5764,-0.1387,-0.1748,-48.2137,-52.4656,117.5573,141593
42,-0.6342,-0.1331,-0.1467,-47.8702,-51.5649,114.1756,141613
43,-0.673,-0.0652,-0.1213,-40.8321,-51.8473,114.8779,141633
44,-0.654,0.0322,-0.1274,-42.8779,-49.6412,111.9008,141653
45,-0.6757,-0.0054,-0.0999,-47.2061,-48.3435,106.0687,141673
46,-0.7297,0.0288,-0.0789,-41.1374,-44.8855,93.5038,141693
47,-0.7509,0.0952,-0.0679,-28.2366,-45.4885,93.0153,141713
48,-0.749,0.1196,-0.0444,-12.8473,-40.5878,88.626,141733
49,-0.7502,0.1763,-0.0374,-13.6031,-39.145,78.6641,141753
50,-0.7907,0.2563,-0.0249,-30.2901,-38.1069,66.2824,141773
51,-0.8307,0.2336,-0.0264,-49.2061,-43.2137,57.3969,141793
52,-0.7988,0.1763,-0.0791,-54.626,-41.8168,51.9847,141813
53,-0.8078,0.1216,-0.0759,-43.9695,-36.8168,50.1145,141833
54,-0.8176,0.1147,-0.0164,-27.084,-32.9771,52.2977,141853
55,-0.8661,0.1714,0.0042,-18.313,-34.6489,57.313,141873
56,-0.8715,0.2314,0.0076,-15.0687,-37.9008,57.4656,141893
57,-0.8478,0.2437,-0.0161,-18.5573,-36.4809,56.9313,141913
58,-0.86,0.2187,0.0186,-24.6565,-33.1298,50.9237,141933
59,-0.902,0.2354,0.071,-22.7099,-36.5496,46.6565,141953
60,-0.8898,0.3027,0.0667,-23.7557,-43,42.3206,141973
61,-0.8871,0.3186,0.0137,-30.3969,-43.4427,38.5725,141993
62,-0.8903,0.2542,0.0266,-27.3206,-40.5878,34.9237,142013
63,-0.4965,0.3599,-0.2349,-6.0458,-48.1985,16.6412,142033
64,-0.8964,0.29,0.0498,-0.1145,-35.0382,29.5649,142053
65,-0.8828,0.3721,0.0947,4.9084,-37.8397,34.9847,142073
66,-0.8686,0.4136,0.0859,-2.1679,-32.6031,35.2748,142093
67,-0.8898,0.3975,0.1133,-13.084,-28.5344,31.6947,142113
68,-0.893,0.363,0.1409,-14.771,-27.0076,30.9847,142133
69,-0.8871,0.3904,0.1526,-11.7176,-26.4733,28.9313,142153
70,-0.8881,0.4456,0.1531,-15.5496,-23.4886,28.0763,142173
71,-0.9074,0.4543,0.1733,-22.1069,-23.1298,28.0611,142193
72,-0.883,0.4546,0.137,-26.5114,-23.0153,23.771,142213
73,-0.8979,0.4377,0.1638,-23.7863,-19.1527,19.3282,142233
74,-0.893,0.4636,0.167,-18.3817,-19.0992,14.9389,142253
75,-0.8911,0.5037,0.1616,-26.6031,-17.916,13.1679,142273
76,-0.8893,0.5176,0.1941,-49.0076,-17.9542,11.1374,142293
77,-0.8688,0.3938,0.1672,-59.0687,-17.2366,4.8931,142313
78,-0.8769,0.2957,0.1582,-38.5725,-12.1298,-1.0687,142333
79,-0.8049,0.3794,0.0991,-16.1221,-6.1603,-8.374,142353
80,-0.9235,0.4229,0.1633,-7.2061,-8.5649,-0.0992,142373
81,-0.9067,0.4236,0.179,-11.1603,-13.145,6.8092,142393
82,-0.8823,0.3884,0.1736,-13.1832,-12.3359,9.8244,142413
83,-0.8957,0.374,0.168,-10.3893,-9.2901,11.2137,142433
84,-0.8886,0.3796,0.1777,-3.0763,-7.7176,9.9542,142453
85,-0.8893,0.3923,0.2024,1.8092,-5.9542,7.5878,142473
86,-0.9001,0.4316,0.188,4.2672,-6.0076,8.3511,142493
87,-0.8996,0.4358,0.1882,1.8855,-6.4885,6.9313,142513
88,-0.8649,0.4136,0.1677,1.687,-5.8931,3.5878,142533
89,-0.8666,0.4243,0.1995,1.5954,-2.4046,1.1756,142553
90,-0.8808,0.429,0.2222,-1.3969,-2.2137,-1.0992,142573
91,-0.8976,0.4241,0.1807,-8.8092,-4.9466,-1.5649,142593
92,-0.8991,0.405,0.1594,-10.6107,-6.6336,-1.4198,142613
93,-0.8845,0.3723,0.2024,-4.542,-4.8779,0,142633
94,-0.8871,0.3928,0.2166,3.1527,-3.0992,2.3053,142653
95,-0.8911,0.418,0.2227,2.1374,-0.8244,4.1069,142673
96,-0.9042,0.4287,0.2161,-2.2519,-1.1756,4.3435,142693
97,-0.8986,0.4167,0.1948,-4.3969,-2.1145,2.9084,142713
98,-0.8972,0.3979,0.1909,-2.2672,-1.4351,1.3588,142733
99,-0.9006,0.4148,0.2,-1.9771,-2.542,0.7939,142753
100,-0.9011,0.4185,0.197,-2.8244,-4.0076,0.1679,142773
101,-0.9045,0.4209,0.1843,-4.1985,-5.6183,1.7557,142793
102,-0.8918,0.3989,0.2048,-3.7939,-5.1221,3.0458,142813
103,-0.8806,0.4055,0.1968,-1.542,-1.3588,4.1374,142833
104,-0.9023,0.425,0.1934,-0.9771,-0.3282,2.9084,142853
105,-0.8962,0.4399,0.1968,-3.9084,-2.2901,2.084,142873
106,-0.8957,0.4326,0.1792,-6.084,-3.5038,0.2748,142893
107,-0.9011,0.4233,0.1829,-6.6489,-4.5954,-0.6641,142913
108,-0.8906,0.4006,0.1909,-5.5725,-3.9542,-0.3206,142933
109,-0.892,0.4072,0.2046,-2.8473,-1.9237,1.2824,142953
110,-0.8913,0.4238,0.1924,-3.0992,-1.6183,2.0992,142973
111,-0.9052,0.4292,0.1755,-5.2824,-1.8015,1.9542,142993
112,-0.9069,0.418,0.1804,-6.4046,-3.2366,0.916,143013
113,-0.8952,0.4055,0.1904,-5.6107,-3.5878,0.7099,143033
114,-0.8881,0.4077,0.1975,-5.1679,-3.2137,1.9618,143053
115,-0.8957,0.4121,0.1924,-4.7557,-2.6794,2.1298,143073
116,-0.8876,0.4167,0.196,-4.0382,-2.3664,2.7023,143093
117,-0.8908,0.4153,0.1782,-4.145,-2.7176,2.5496,143113
118,-0.8964,0.4099,0.1865,-3.0611,-2.3969,1.6718,143133
119,-0.8937,0.4136,0.1863,-3.1679,-3.0382,1.4809,143153
120,-0.8932,0.4185,0.2043,-3.9847,-3.3969,1.1527,143173
121,-0.8874,0.4124,0.1858,-4.1145,-2.8931,0.9618,143193
122,-0.8989,0.4055,0.1926,-3.3435,-2.2672,1.2137,143213
123,-0.9003,0.4189,0.1809,-3.084,-2.8321,2.5954,143233
124,-0.8952,0.4197,0.1863,-3.3435,-3.084,2.313,143253
125,-0.8862,0.4202,0.1899,-3.0229,-3.3282,1.4885,143273
126,-0.8825,0.4355,0.1804,-3.1374,-2.458,0.3817,143293
127,-0.8879,0.4312,0.1841,-6.0229,-2.6336,-0.7252,143313
128,-0.8891,0.4182,0.1899,-9.1145,-2.6412,-2.2519,143333
129,-0.8952,0.4175,0.1948,-11.2366,-1.8702,-1.2366,143353
130,-0.905,0.3984,0.1855,-8.374,-1.8779,0.145,143373
131,-0.895,0.4065,0.1895,-3.4351,-1.4809,1.4046,143393
132,-0.9023,0.4246,0.1948,-3.084,-0.4504,2.7634,143413
133,-0.9081,0.4167,0.1943,-6.0153,-1.5038,2.1374,143433
134,-0.8986,0.4172,0.186,-7.9847,-2.7786,0.9466,143453
135,-0.8972,0.3833,0.1846,-5.7405,-2.1756,-0.1908,143473
136,-0.8998,0.3975,0.189,-0.6031,-1.9847,0.6031,143493
137,-0.8945,0.4148,0.1877,-0.5573,-2.3282,2.1527,143513
138,-0.892,0.4207,0.1833,-2.2366,-2.5725,2.084,143533
139,-0.8969,0.4238,0.1824,-2.8779,-1.8321,0.8702,143553
140,-0.8935,0.4038,0.1782,-3.6412,-2.5954,-0.0992,143573
141,-0.8918,0.4116,0.1797,-1.9389,-2.855,-0.1298,143593
142,-0.8864,0.4294,0.1875,-2.5115,-3.0916,0.3969,143613
143,-0.895,0.4238,0.1848,-3.2595,-1.2443,0.4122,143633
144,-0.9147,0.4187,0.1819,-4.2366,-0.9542,0.0687,143653
145,-0.9101,0.4153,0.1831,-6.5115,-2.6031,-0.1756,143673
146,-0.9086,0.4026,0.1782,-7.1679,-2.4046,0.3511,143693
147,-0.9067,0.3884,0.1912,-6.2519,-3.6565,1.1527,143713
148,-0.8942,0.3923,0.1978,-3.458,-4.2443,2.8779,143733
149,-0.884,0.4053,0.1946,-1.2137,-3.3817,4.5878,143753
150,-0.8823,0.4187,0.1882,-0.9542,-2.3664,3.916,143773
151,-0.8842,0.4282,0.1848,-1.9389,-1.6947,2.0153,143793
152,-0.8957,0.4248,0.1765,-3.374,-2.1908,0.0611,143813
153,-0.8937,0.4136,0.1812,-3.9847,-2.7939,-0.8397,143833
154,-0.8935,0.3999,0.1812,-2.229,-1.3511,-0.374,143853
155,-0.9079,0.4124,0.1895,0.229,-1.8702,1.2366,143873
156,-0.9008,0.4248,0.1882,0.3511,-2.0229,2.3206,143893
157,-0.8981,0.4292,0.1777,-1.3511,-1.3435,2.1221,143913
158,-0.9079,0.4211,0.1682,-1.9389,-1.4275,1.2824,143933
159,-0.9023,0.4138,0.1726,-2.2748,-2.7099,1.1374,143953
160,-0.8937,0.4116,0.1709,-2.542,-2.9695,0.9389,143973
161,-0.9016,0.4185,0.1833,-2.6336,-3.855,1.3969,143993
162,-0.8947,0.4292,0.1912,-3.0458,-3.4122,2.1374,144013
163,-0.8906,0.4209,0.1772,-3.4046,-2.2977,1.6031,144033
164,-0.895,0.4146,0.1792,-2.8626,-1.2519,0.9542,144053
165,-0.8972,0.4146,0.177,-2.7405,-1.7481,1.4046,144073
166,-0.8984,0.4067,0.1838,-3.1145,-2.7405,0.6641,144093
167,-0.8925,0.4065,0.187,-2.6718,-3.3206,0.3664,144113
168,-0.8952,0.4146,0.187,-3.1145,-2.9008,0.6107,144133
169,-0.8974,0.3994,0.1743,-3.1527,-1.8168,0.5115,144153
170,-0.9067,0.3967,0.1743,-2.855,-1.1756,1.7786,144173
171,-0.9028,0.417,0.1777,-1.3969,-3.3435,2.1374,144193
172,-0.8867,0.4282,0.1807,-1.1145,-3.1527,2.0687,144213
173,-0.8984,0.4343,0.1753,-2.458,-2.6489,0.9389,144233
174,-0.9008,0.417,0.189,-3.4809,-3.3511,-0.855,144253
175,-0.8884,0.4185,0.1628,-3.6565,-3.2214,-0.8855,144273
0,-0.0844,-0.0728,0.9175,3.9924,4.3435,-6.1145,146913
1,-0.0131,-0.0391,0.8638,-2.1985,3.3053,-5.2901,146933
2,-0.0085,-0.0359,0.8516,-5.374,2.8092,-4,146953
3,0.0015,-0.063,0.8472,-7.8321,0.3359,-2.0916,146973
4,0.0037,-0.0754,0.8555,-8.5954,-1.8397,0.7786,146993
5,-0.0014,-0.0898,0.8677,-9.0992,-5.4122,3.1298,147013
6,-0.0026,-0.0686,0.8508,-8.9008,-7.3969,4.9313,147033
7,0.0296,-0.0715,0.8291,-9.4809,-6.3817,6.3206,147053
8,-0.4553,-0.0911,1.5444,-18.4427,-14.4275,21.6641,147073
9,-0.0637,-0.0088,0.8728,-29.4504,-15.4656,7.5115,147093
10,0.024,-0.2031,0.8379,-24.4046,-10.4733,-4.3282,147113
11,0.0311,-0.1277,0.7773,-19.2137,0.5878,4.4504,147133
12,0.0418,-0.0291,0.8098,-35.1908,4.6565,2.6641,147153
13,0.0391,-0.0625,0.842,-49.5649,4.626,2.4962,147173
14,0.0584,-0.1086,0.8794,-61.6489,10.4046,0.1679,147193
15,0.1395,-0.1902,0.8455,-78.0534,14.2977,0.0305,147213
16,0.0728,-0.2534,0.8357,-85.1756,25.3206,6.7634,147233
17,0.0108,-0.2114,0.8047,-99.6718,35.5191,14.4122,147253
18,-0.0549,-0.2627,0.8237,-131.229,34.374,19.687,147273
19,-0.0881,-0.3237,0.792,-158.687,29.6336,22.5954,147293
20,-0.0974,-0.3823,0.7085,-179.0687,28.3206,27.9313,147313
21,-0.103,-0.4568,0.6304,-194.8244,31.2214,36.2443,147333
22,-0.1037,-0.5767,0.5464,-198.1832,33.8168,45.8779,147353
23,-0.1501,-0.585,0.4639,-197.6336,34.1908,55.2214,147373
24,-0.1911,-0.5972,0.3879,-192.5725,30.4046,64.7328,147393
25,-0.1974,-0.6003,0.3108,-189.8321,21.2748,74.4809,147413
26,-0.2358,-0.5781,0.2405,-186.3893,13.3969,85.9847,147433
27,-0.2441,-0.5813,0.1494,-185.1527,5.3969,94.8931,147453
28,-0.2748,-0.5928,0.0789,-180.4198,-3.7557,98.4809,147473
29,-0.3078,-0.5461,0.0217,-169.7481,-11.4198,101.8092,147493
30,-0.3256,-0.5225,-0.0261,-162.7328,-20.084,105.8779,147513
31,-0.3676,-0.4873,-0.0898,-159.4122,-30.0458,109.0534,147533
32,-0.4382,-0.4734,-0.1201,-158.145,-40.5802,109.4885,147553
33,-0.4826,-0.4634,-0.1738,-144.3053,-48.6641,106.7939,147573
34,-0.4785,-0.4524,-0.2014,-122.9466,-55.4351,106.0992,147593
35,-0.4785,-0.4526,-0.1797,-102.916,-60.8397,106.4809,147613
36,-0.4885,-0.4177,-0.1619,-77.5343,-65.9771,109.1221,147633
37,-0.4782,-0.3618,-0.1743,-62.7939,-68.0534,111.8321,147653
38,-0.518,-0.3188,-0.136,-56.7252,-69.855,112.4122,147673
39,-0.5217,-0.28,-0.1306,-50.7252,-70.9847,109.5191,147693
40,-0.5641,-0.2542,-0.1255,-49.8626,-73.145,107.1374,147713
41,-0.5844,-0.1875,-0.1055,-51.0229,-74.0305,105.8702,147733
42,-0.5947,-0.1699,-0.0967,-48.1374,-75.2595,102.3588,147753
43,-0.6315,-0.1262,-0.0566,-40.7023,-75.6107,97.5954,147773
44,-0.624,-0.0769,-0.0483,-35.9771,-74.7023,92.6565,147793
45,-0.6589,-0.0542,-0.0295,-42.8626,-72.8473,88.4275,147813
46,-0.6826,-0.0317,-0.0022,-46.6031,-71.6031,82.3893,147833
47,-0.704,-0.0291,0.0024,-39.6794,-68.4046,78.229,147853
48,-0.6857,-0.0076,-0.0002,-27.5038,-62.4962,74.3511,147873
49,-0.7204,0.0454,0.0269,-23.0916,-56.313,72.6947,147893
50,-0.7538,0.0686,0.063,-26.7328,-54.2595,69.8168,147913
51,-0.7783,0.1072,0.085,-24.5954,-52.7252,64.4351,147933
52,-0.7697,0.1692,0.0627,-29.2214,-50.7252,59.6107,147953
53,-0.77,0.1567,-0.0105,-29.5649,-46.4122,52.9084,147973
54,-0.7372,-0.0122,0.0122,4.8855,-37.1985,50.7405,147993
55,-0.7578,-0.0618,0.0884,55.3893,-24.4427,56.374,148013
56,-0.8005,0.1104,0.1172,71.7176,-20.4275,61.3969,148033
57,-0.8361,0.2339,0.1089,44.2901,-24.6412,61.6107,148053
58,-0.842,0.2383,0.1016,6.4962,-28.6947,57.3969,148073
59,-0.8608,0.2053,0.1265,-10.2366,-31.229,51.0611,148093
60,-0.8578,0.2117,0.1604,-9.4198,-33.084,47.145,148113
61,-0.8515,0.2241,0.165,3.6336,-30.542,45.4427,148133
62,-0.8862,0.3127,0.1616,6.7252,-28.6183,46.2443,148153
63,-0.8898,0.3577,0.1567,-10.145,-27.6641,43.2977,148173
64,-0.8893,0.3359,0.1836,-28.9695,-29,35.5267,148193
65,-0.9091,0.2839,0.2034,-29.6718,-28.3053,29.229,148213
66,-0.8808,0.2866,0.2026,-15.1908,-26.8168,27.1603,148233
67,-0.8849,0.3354,0.1643,-9.8397,-26.7252,27.4733,148253
68,-0.8842,0.355,0.1658,-13.7176,-22.4351,27.313,148273
69,-0.8935,0.3494,0.2136,-16.7557,-19.916,25.0382,148293
70,-0.881,0.3506,0.2307,-12.229,-19.3282,21.1374,148313
71,-0.8747,0.3479,0.2019,-9.5573,-18.7328,19.1221,148333
72,-0.8759,0.3152,0.1765,-2.4962,-15.542,17.1832,148353
73,-0.8749,0.3425,0.186,6.458,-12.9008,17.5802,148373
74,-0.8857,0.3643,0.2173,4.5954,-12.0229,17.6718,148393
75,-0.8947,0.3867,0.2192,-5.1679,-13.6336,16.6565,148413
76,-0.8918,0.3638,0.2263,-13.0076,-13.2824,14.3282,148433
77,-0.8781,0.3547,0.2263,-11.0763,-10.5344,13.0458,148453
78,-0.8813,0.3718,0.2178,-5.2977,-7.3588,11.9924,148473
79,-0.8847,0.3955,0.2217,-5.4351,-4.6794,9.5267,148493
80,-0.8884,0.4077,0.2114,-11.771,-4.2901,7.4275,148513
81,-0.884,0.3601,0.2178,-14.4962,0.0458,5.229,148533
82,-0.8793,0.345,0.2102,-7.9924,1.2901,4.3435,148553
83,-0.8886,0.3701,0.2061,-1.8244,0.7634,4.1298,148573
84,-0.8964,0.3953,0.2139,-3.9313,-1.9389,4.145,148593
85,-0.8901,0.3845,0.2039,-9.3511,-5.626,3.4962,148613
86,-0.8942,0.3696,0.2192,-11.3588,-7.4656,2.2366,148633
87,-0.8959,0.3789,0.2278,-13.3817,-7.9618,1.5802,148653
88,-0.8876,0.3728,0.2336,-14.1985,-7.0534,0.0153,148673
89,-0.8915,0.3677,0.2239,-14.1221,-6.2214,-1.229,148693
90,-0.8974,0.3376,0.2107,-11.6183,-3.9695,-0.2061,148713
91,-0.8976,0.3259,0.2117,-6.6336,-4.0534,1.0687,148733
92,-0.9028,0.3364,0.2126,-4.0229,-6.3969,2.5954,148753
93,-0.9074,0.3713,0.2173,-3.8855,-8.8779,3.3664,148773
94,-0.8913,0.3718,0.2041,-3.3053,-9.8702,2.229,148793
95,-0.8796,0.3738,0.2175,-3.2901,-7.6718,0.8626,148813
96,-0.8679,0.355,0.2241,-1.7557,-4.7634,-0.1374,148833
97,-0.8852,0.3667,0.229,-3.2214,-4.8473,-0.2137,148853
98,-0.8703,0.3635,0.2017,-6.0229,-5.5649,-0.7252,148873
99,-0.8828,0.3491,0.2068,-5.9771,-6.8855,-0.3053,148893
100,-0.8649,0.3467,0.2097,-2.9542,-6.4122,-0.4198,148913
101,-0.8879,0.3608,0.2263,-3.0916,-4.7786,0.7328,148933
102,-0.8793,0.3792,0.2327,-5.7405,-3.3817,1.2748,148953
103,-0.8918,0.3716,0.2446,-9.687,-4.1298,1.4351,148973
104,-0.8942,0.3411,0.2236,-10.5038,-3.3282,1.3664,148993
105,-0.8845,0.3301,0.2239,-6.1985,-3.5344,1.3588,149013
106,-0.8864,0.3401,0.2168,-5.7176,-4.2901,1.626,149033
107,-0.8813,0.3464,0.2187,-4.8779,-4.2672,2.5802,149053
108,-0.8801,0.3577,0.238,-5.5573,-4.1908,2.8855,149073
109,-0.8835,0.363,0.2236,-5.4733,-3.7328,3.1603,149093
110,-0.883,0.3611,0.2183,-4.8626,-3.2366,2.5344,149113
111,-0.8781,0.3594,0.2078,-8.1908,-3.2901,2.0305,149133
112,-0.8747,0.3389,0.2151,-5.8015,-3.8473,0.8473,149153
113,-0.8806,0.3435,0.2217,-3.855,-3.4427,2.2443,149173
114,-0.8889,0.3633,0.2227,-3.8626,-3.9008,3.3969,149193
115,-0.8864,0.3574,0.2366,-4.2595,-4.1832,3.374,149213
116,-0.8757,0.3645,0.2109,-4.0916,-3.4046,2.7176,149233
117,-0.8828,0.366,0.2227,-4.4275,-2.7939,1.0611,149253
118,-0.8791,0.3689,0.2217,-4.5878,-2.626,0.7023,149273
119,-0.8803,0.3621,0.2261,-5.2519,-3.4656,0.7252,149293
120,-0.8828,0.3506,0.2285,-6.4275,-2.7863,1.0916,149313
121,-0.893,0.3555,0.2317,-6.2901,-3.0076,2.3206,149333
122,-0.8862,0.3535,0.2336,-4.2137,-2.4122,2.1374,149353
123,-0.8962,0.3689,0.2261,-2.8702,-2.0992,2.0076,149373
124,-0.8906,0.3657,0.2336,-4.9542,-2.6031,1.3588,149393
125,-0.8747,0.3638,0.2209,-7.0076,-3.2901,0.9695,149413
126,-0.8793,0.3376,0.2202,-6.5878,-3.1374,0.7939,149433
127,-0.8815,0.3447,0.2249,-4.2748,-3.0382,1.6183,149453
128,-0.884,0.3398,0.2219,-1.1145,-1.8626,1.9237,149473
129,-0.8903,0.3635,0.2271,-0.855,-2.3588,2.5191,149493
130,-0.8915,0.3701,0.2302,-1.626,-3.1527,1.7405,149513
131,-0.8771,0.3735,0.2178,-3.2595,-2.8626,0.9695,149533
132,-0.8835,0.3542,0.2258,-2.9313,-2.6718,0.916,149553
133,-0.8786,0.3496,0.217,-1.916,-2.0916,1.4809,149573
134,-0.8859,0.3567,0.2187,-1.9542,-2.6107,2.4275,149593
135,-0.8825,0.3674,0.2185,-2.7252,-2.6031,1.7328,149613
136,-0.8896,0.3806,0.217,-3.1145,-3.1985,0.9771,149633
137,-0.8813,0.3625,0.228,-2.6718,-2.4504,0.3511,149653
138,-0.8869,0.3572,0.2256,-2.5954,-2.9389,0.3053,149673
139,-0.8923,0.3474,0.2244,-4.7176,-2.4198,1.4733,149693
140,-0.8801,0.3518,0.2266,-1.8168,-2.5649,2.2519,149713
141,-0.8849,0.3721,0.2153,-1.9924,-2.229,2.5878,149733
142,-0.8911,0.3628,0.2319,-2.5191,-2.6107,1.4275,149753
143,-0.8908,0.3674,0.22,-4.7252,-3.3511,-0.0687,149773
144,-0.8808,0.3535,0.2234,-4.084,-3.0229,0.7023,149793
145,-0.8791,0.3516,0.2253,-0.8473,-1.8168,1.1298,149813
146,-0.8806,0.3591,0.228,0.2214,-2.3053,1.6947,149833
147,-0.8764,0.3535,0.2236,-1.8626,-2.4733,1.7634,149853
148,-0.8847,0.3584,0.2263,-2.8397,-2.5725,1.0763,149873
149,-0.8884,0.3713,0.2124,-3.2672,-2.4656,1.2214,149893
150,-0.8813,0.3718,0.2197,-2.7557,-2.229,1.3206,149913
151,-0.8798,0.3689,0.2234,-2.9542,-1.8702,1.458,149933
152,-0.8881,0.3643,0.2214,-3.8321,-2.8626,0.8321,149953
153,-0.8876,0.3538,0.2283,-3.313,-2.6947,0.6031,149973
154,-0.8911,0.365,0.2236,-2.3435,-2.8168,1.0916,149993
155,-0.8923,0.373,0.218,-1.8779,-2.6794,1.4351,150013
156,-0.8915,0.3755,0.2205,-3.4427,-2.4733,1.6336,150033
157,-0.8879,0.3535,0.2134,-3.687,-2.4733,0.7328,150053
158,-0.8898,0.354,0.2156,-3.8092,-2.7405,1.2061,150073
159,-0.8896,0.3557,0.2273,-2.8626,-3.1985,1.5344,150093
160,-0.8852,0.3604,0.2285,-1.2901,-3.2901,1.5649,150113
161,-0.8808,0.3696,0.2192,-1.229,-3.8779,1.3435,150133
162,-0.882,0.3552,0.2202,-1.7634,-3.1374,0,150153
163,-0.8903,0.3552,0.2222,-1.4504,-3.4122,-0.084,150173
164,-0.8884,0.3589,0.2141,-2,-3.8779,0.4122,150193
165,-0.8903,0.3589,0.2285,-2.2672,-4.0153,1.4427,150213
166,-0.8828,0.3638,0.2263,-1.7099,-3.1756,1.9771,150233
167,-0.8796,0.3616,0.2322,-0.7405,-2.5191,1.4351,150253
168,-0.8869,0.3665,0.2222,-0.8168,-2.4198,1.2595,150273
169,-0.8818,0.3667,0.2183,-2.771,-3.1985,0.4046,150293
170,-0.8796,0.3601,0.2092,-2.6718,-3.3664,0.9389,150313
171,-0.8735,0.3623,0.2112,-1.6489,-2.3206,1.3053,150333
172,-0.8747,0.3635,0.2271,-2.8702,-2.626,1.3893,150353
173,-0.8857,0.3677,0.2268,-2.9008,-2.4504,0.8702,150373
174,-0.8864,0.3667,0.2349,-2.8779,-2.2748,0.5191,150393
175,-0.8903,0.365,0.2324,-1.8397,-2.4275,0.6718,150413
0,-0.1301,-0.1543,0.7773,2.4046,7.0458,-1.6641,152953
1,-0.0114,-0.0288,0.8394,-1.5344,0.2748,1.1832,152973
2,-0.0268,-0.0427,0.8611,-3.5115,0.3206,-0.6336,152993
3,-0.0336,-0.0471,0.8604,-4.8473,-1.145,0.5878,153013
4,-0.029,-0.0632,0.8613,-5.3282,-3.8244,1.0916,153033
5,-0.0341,-0.0435,0.8608,-5.1985,-4.9924,0.8397,153053
6,-0.0168,-0.0525,0.8396,-6.7786,-5.4656,1.0305,153073
7,-0.0004,-0.0303,0.8411,-10.7863,-5.9008,3.0382,153093
8,0.013,-0.0854,0.8137,-13.1374,-2.7939,4,153113
9,0.3248,-0.103,0.5598,-6.8931,2,1.0992,153133
10,0.0098,-0.1433,0.7981,-3.3969,11.8244,-6.7176,153153
11,-0.0668,-0.0173,0.895,-2.1374,7.1221,-7.7023,153173
12,-0.0146,-0.0251,0.7893,-10.9771,16.4351,-6.5344,153193
13,-0.0212,-0.0845,0.8506,-11.2672,14.2824,-5.8626,153213
14,-0.0344,-0.0627,0.8838,-9.3206,11.6794,-1.2977,153233
15,-0.1164,-0.0825,0.9338,-20.4122,-1.4809,-6.2366,153253
16,-0.0578,-0.0034,0.905,-38.9618,-6.2595,-4.9313,153273
17,-0.0134,-0.0022,0.886,-55.1985,-9.0382,-5.1527,153293
18,0.0081,-0.0791,0.8301,-59.0916,-12.145,-3.1679,153313
19,0.0262,-0.0679,0.8054,-62.6794,-10.9695,-0.0763,153333
20,0.0606,-0.0933,0.7922,-72.5496,-8.5954,1.3206,153353
21,0.0926,-0.1213,0.7671,-80.0992,-4.1603,1.1374,153373
22,0.0638,-0.1421,0.7229,-95,-2.2748,1.4046,153393
23,0.0572,-0.1902,0.6914,-104.9695,1.1145,1.4427,153413
24,0.066,-0.2375,0.6692,-112.2061,5.9313,0.9542,153433
25,0.0582,-0.2488,0.6245,-127.3282,8.5496,-1.7634,153453
26,0.0389,-0.2441,0.5732,-153.542,10.7786,-2.7252,153473
27,0.0079,-0.4014,0.5303,-166.374,11.8168,-0.2595,153493
28,0.001,-0.5325,0.5198,-148,13.7023,3.5725,153513
29,-0.0019,-0.5449,0.4863,-126.1069,16.0763,9.2672,153533
30,-0.0671,-0.4692,0.4409,-129.9466,12.3282,17.2595,153553
31,-0.0991,-0.4788,0.3865,-155.8321,4.7023,25.2214,153573
32,-0.1154,-0.5288,0.3208,-184.5343,-3.9771,30.2748,153593
33,-0.1152,-0.5745,0.2178,-214.5725,-9.084,34.0687,153613
34,-0.1579,-0.6289,0.157,-246.6107,-16.0305,37.0458,153633
35,-0.1564,-0.8828,0.1123,-232.0458,-25.4504,35.3053,153653
36,-0.183,-0.884,0.0562,-164.916,-30.145,39.0382,153673
37,-0.1782,-0.7437,-0.0068,-120.7939,-32.4885,58.9237,153693
38,-0.1938,-0.6702,-0.0391,-106.6641,-33.5267,77.7099,153713
39,-0.2617,-0.645,-0.0481,-109.8473,-38.3664,90.5573,153733
40,-0.3229,-0.6165,-0.0693,-122.0763,-46.855,94.3511,153753
41,-0.3391,-0.646,-0.1145,-116.5954,-53.3282,93.4504,153773
42,-0.3405,-0.5979,-0.1462,-101.8168,-55.0992,95.9466,153793
43,-0.2993,-0.551,-0.1902,-96.5267,-56.4809,97.3969,153813
44,-0.3561,-0.5012,-0.1821,-95.3893,-64.4046,107.2595,153833
45,-0.3449,-0.4905,-0.2224,-93.771,-69.6947,103.3817,153853
46,-0.3771,-0.5022,-0.2151,-74.7863,-71.2137,98.4733,153873
47,-0.4116,-0.4265,-0.2073,-46.5573,-74.3664,105.2214,153893
48,-0.392,-0.4055,-0.2432,-33.7786,-74.6412,102.4046,153913
49,-0.4604,-0.4226,-0.2234,-12.1908,-74.7328,106.2977,153933
50,-0.4782,-0.3503,-0.189,7.2901,-69.4351,107.0534,153953
51,-0.5231,-0.2761,-0.1599,15.4656,-67.4962,105.9389,153973
52,-0.5307,-0.2473,-0.126,6.4656,-64.3053,105.0611,153993
53,-0.5759,-0.2388,-0.1038,4.7863,-61.2366,100.084,154013
54,-0.6284,-0.2031,-0.0579,3.8626,-61.0229,102.145,154033
55,-0.6413,-0.1658,-0.0488,-1.8931,-60.9695,104.9466,154053
56,-0.7026,-0.1436,-0.0027,-3.6412,-60.374,108.2366,154073
57,-0.6923,-0.0852,-0.0393,-6.8931,-56.1832,106.4275,154093
58,-0.7092,-0.0847,0.0017,-17.1221,-51.626,101.3053,154113
59,-0.7336,-0.0745,0.0046,-24.0687,-51.8168,97.7099,154133
60,-0.7529,-0.0186,-0.0144,-36.1603,-53.4733,96.9771,154153
61,-0.7719,-0.0391,0.0117,-40.0229,-54.8931,97.229,154173
62,-0.7556,-0.0305,0.0117,-32.9466,-53.313,96.0305,154193
63,-0.7785,0.0415,0.0125,-30.145,-51.8855,95.5573,154213
64,-0.7919,0.1125,0.0471,-35.8473,-51.1908,93.7252,154233
65,-0.7993,0.1316,0.0581,-46.6031,-52.5038,85.9084,154253
66,-0.8112,0.1367,0.0615,-49.2214,-53.2061,80.5496,154273
67,-0.79,0.1235,0.0566,-29.7786,-47.5344,76.1832,154293
68,-0.7875,0.2004,0.0835,-17.3359,-41.7099,72.6794,154313
69,-0.819,0.2739,0.1006,-25.7176,-39.8702,68.3588,154333
70,-0.8129,0.2822,0.1035,-38.0458,-38.6412,62.6336,154353
71,-0.8071,0.2683,0.0918,-42.1908,-36.6183,56.5496,154373
72,-0.8015,0.248,0.0972,-30.5573,-31.6794,50.5649,154393
73,-0.8122,0.2781,0.1294,-14.8321,-26.916,47.8931,154413
74,-0.8322,0.3135,0.1438,-17.7099,-26.6107,46.084,154433
75,-0.8793,0.3301,0.1604,-28.2977,-28.1374,40.6336,154453
76,-0.8723,0.3074,0.1133,-31.7328,-30.3817,35.4809,154473
77,-0.8532,0.293,0.0881,-22.9924,-28.6718,32.9771,154493
78,-0.8603,0.3005,0.1433,-10.3969,-24.3282,31.8015,154513
79,-0.8666,0.3535,0.1592,-13.229,-23.1603,30.4504,154533
80,-0.8874,0.3303,0.1819,-18.916,-24.916,25.9695,154553
81,-0.8581,0.3188,0.1743,-14.0153,-25.8855,21.4962,154573
82,-0.79,0.2878,0.1707,-9.6412,-23.7786,13.0229,154593
83,-0.831,0.2769,0.1936,-3.1908,-21.3206,2.2595,154613
84,-0.8876,0.3767,0.1973,-4.2366,-23.0382,2.1985,154633
85,-0.8671,0.3335,0.1912,-5.5878,-22.7634,6.9008,154653
86,-0.8737,0.3716,0.2163,-3.0916,-17.9466,12.3282,154673
87,-0.8871,0.3767,0.2332,-5.8397,-14.1832,14.1756,154693
88,-0.9008,0.3931,0.2471,-2.1679,-10.6107,14.4427,154713
89,-0.893,0.4167,0.2322,-1.7863,-5.771,13.7939,154733
90,-0.8957,0.3987,0.2219,0.7023,-1.6183,10.2824,154753
91,-0.9003,0.4202,0.2007,5.0992,-0.229,7.9847,154773
92,-0.8959,0.436,0.1863,1.4351,-1.3817,5.9466,154793
93,-0.8959,0.3972,0.209,-4.9542,-1.2061,4.6107,154813
94,-0.884,0.3682,0.199,-6.4504,-4.0534,3.1221,154833
95,-0.8913,0.3674,0.1936,-5.0763,-4.8779,4.1145,154853
96,-0.8932,0.3784,0.2014,-3.7176,-4.5038,6.6336,154873
97,-0.8867,0.3887,0.198,-3.8473,-3.9695,7.7634,154893
98,-0.8793,0.3848,0.1982,-3.6794,-1.3359,7.771,154913
99,-0.8801,0.3904,0.197,-2.8168,-0.313,6.8626,154933
100,-0.8867,0.3774,0.1992,-3.0687,-1.8092,4.1756,154953
101,-0.8923,0.3872,0.1948,-5.7023,-5.4046,2.9466,154973
102,-0.8825,0.3799,0.1814,-6.5954,-5.6412,2.7405,154993
103,-0.8876,0.3782,0.1953,-4.3053,-4.2672,2.9008,155013
104,-0.8954,0.3889,0.2056,-4.4351,-3.6336,3.1679,155033
105,-0.8976,0.4023,0.2144,-3.4275,-4.3206,2.9008,155053
106,-0.8976,0.396,0.2039,-4.4656,-3.0076,2.7786,155073
107,-0.8972,0.3887,0.2109,-3.7939,-3.0382,2.084,155093
108,-0.8989,0.3955,0.2041,-4.2824,-3.8855,1.4351,155113
109,-0.8994,0.3809,0.2136,-3.6794,-4.458,0.687,155133
110,-0.8913,0.3887,0.2041,-1.855,-4.8855,0.8397,155153
111,-0.8976,0.3928,0.2161,-1.7863,-4.5725,1.2977,155173
112,-0.8925,0.4004,0.2119,-2.8626,-3.2824,1.3817,155193
113,-0.8945,0.3958,0.2065,-4.1145,-3.8931,0.8397,155213
114,-0.8937,0.3813,0.2036,-2.9695,-3.2672,0.5802,155233
115,-0.8979,0.3923,0.2024,-1.5038,-3.916,1.1603,155253
116,-0.8752,0.3997,0.2009,-2.0687,-4.5878,1.1374,155273
117,-0.8669,0.4092,0.1968,-2.6641,-3.9618,0.5191,155293
118,-0.8644,0.4045,0.1997,-3.2824,-2.9771,-0.4351,155313
119,-0.8779,0.3906,0.1907,-5.374,-2.2443,-0.6794,155333
120,-0.8879,0.3713,0.188,-4.916,-1.3969,-0.2443,155353
121,-0.8996,0.3916,0.2073,-2.8168,-0.7786,1.0687,155373
122,-0.9057,0.3965,0.2068,-4.3359,-1.1069,1.1221,155393
123,-0.9062,0.3757,0.2012,-4.5038,-1.313,1.2366,155413
124,-0.9164,0.3784,0.2102,-2.1145,-1.8397,1.626,155433
125,-0.9016,0.3767,0.2136,-0.5725,-2.8244,1.3893,155453
126,-0.8952,0.3926,0.2119,-2.4656,-3.458,1.4427,155473
127,-0.8867,0.3772,0.2078,-4.0305,-3.4198,0.4962,155493
128,-0.894,0.3682,0.2126,-1.9313,-2.6565,0.0305,155513
129,-0.8891,0.3879,0.2031,-1.9542,-2.9084,0.5344,155533
130,-0.8886,0.3884,0.2046,-2.5496,-3.0382,0.7099,155553
131,-0.8806,0.3894,0.2007,-2.7557,-3.687,0.4275,155573
132,-0.8786,0.3867,0.2014,-2.5878,-3.4656,-0.0229,155593
133,-0.8952,0.3743,0.2063,-3.0763,-2.8855,-0.0611,155613
134,-0.8959,0.3821,0.2095,-2.7939,-2.4275,0.687,155633
135,-0.8959,0.3926,0.2063,-2.1908,-2.1832,0.5573,155653
136,-0.8928,0.3909,0.1987,-1.9771,-2.6489,0.7176,155673
137,-0.892,0.3921,0.1943,-2.7252,-3.374,0.5344,155693
138,-0.8972,0.3853,0.207,-1.6947,-3.3359,0.8168,155713
139,-0.8969,0.3838,0.2156,-1.0076,-2.4198,1.4809,155733
140,-0.8991,0.3933,0.2153,-1.2748,-2.2061,1.3664,155753
141,-0.8903,0.3928,0.2026,-2.7176,-1.9237,1.2595,155773
142,-0.8957,0.3884,0.198,-2.3664,-2.6489,1.2443,155793
143,-0.8781,0.3872,0.1917,-3.1374,-3.1069,1.0382,155813
144,-0.8911,0.3792,0.2002,-2.3435,-3.0611,1.0382,155833
145,-0.8859,0.3916,0.2031,-2.771,-3.1603,0.8015,155853
146,-0.8876,0.3801,0.2021,-2.4198,-2.6183,-0.0611,155873
147,-0.8957,0.3831,0.2085,-2.5649,-2.8397,-0.4198,155893
148,-0.8923,0.3909,0.2061,-2.8779,-3.2366,-0.2824,155913
149,-0.8996,0.385,0.2031,-2.8397,-3.1832,-0.4809,155933
150,-0.8925,0.3823,0.199,-2.7481,-3.145,0.1374,155953
151,-0.8913,0.3816,0.2144,-1.7939,-2.9771,0.7176,155973
152,-0.895,0.3953,0.2053,-2.5573,-3.4351,0.5878,155993
153,-0.9008,0.3916,0.2075,-2.8321,-2.9695,-0.3053,156013
154,-0.8984,0.3914,0.2087,-3.3206,-3.2519,-0.8473,156033
155,-0.9008,0.3762,0.2007,-3.1679,-3.6794,0.9771,156053
156,-0.8901,0.3721,0.1997,-2.1908,-1.9466,3.1069,156073
157,-0.8901,0.3955,0.2073,-1.8092,-1.9542,3.7023,156093
158,-0.8867,0.3892,0.2036,-2.7863,-1.9313,1.8168,156113
159,-0.8964,0.3899,0.2041,-2.6718,-2.7023,0.5115,156133
160,-0.8952,0.3799,0.1995,-3.3206,-3.3969,-0.4122,156153
161,-0.892,0.365,0.2063,-2.9542,-2.7557,0.7176,156173
162,-0.8918,0.3811,0.2007,-2.0916,-2.9771,2.5649,156193
163,-0.8932,0.3894,0.1982,-1.9008,-2.6794,2.458,156213
164,-0.8901,0.3896,0.2031,-1.9695,-2.8626,1.7634,156233
165,-0.9011,0.3921,0.1946,-2.6489,-2.7939,0.0687,156253
166,-0.8994,0.3926,0.2063,-2.9771,-3.2366,0.2977,156273
167,-0.8867,0.3833,0.2053,-2.2519,-3.7939,0.2977,156293
168,-0.8911,0.3894,0.2107,-1.8702,-3.2519,1.1679,156313
169,-0.8928,0.4014,0.2017,-2.1374,-3.9008,0.8244,156333
170,-0.8957,0.3945,0.2051,-2.313,-3.6947,0.4046,156353
171,-0.8915,0.4026,0.1948,-2.9237,-4.0076,-0.2443,156373
172,-0.8906,0.3875,0.1882,-4.3588,-3.8855,-0.3664,156393
173,-0.8925,0.3679,0.2168,-4.1679,-2.8473,1.0687,156413
174,-0.8847,0.3757,0.2107,-2.7939,-2.1679,2.2137,156433
175,-0.8857,0.3806,0.2146,-2.2672,-2.4427,2.7328,156453
0,-0.0165,-0.0444,0.8623,-0.9924,-0.1298,-0.5344,159953
1,-0.0019,-0.0552,0.8406,-0.8397,-0.7634,-1.8702,159973
2,-0.0007,-0.0581,0.8562,-3.4198,-0.2672,-2.2366,159993
3,-0.0021,-0.0493,0.8499,-7.2901,-0.9466,-0.4733,160013
4,-0.0065,-0.0542,0.8474,-8.8702,-1.6412,-0.4809,160033
5,0.0013,-0.0505,0.8423,-9.9695,-1.6794,-0.0153,160053
6,0.0084,-0.0537,0.8472,-8.9695,-2.1679,2.4809,160073
7,0.014,-0.054,0.8472,-8.4122,-2.6489,4.4427,160093
8,-0.0087,-0.0801,0.896,-12.6336,-6.0916,2.4198,160113
9,0.001,-0.0747,0.8655,-16.3588,-6.0305,1.5267,160133
10,0.1424,0.0188,0.7705,-16.4962,1.1908,6.6031,160153
11,-0.0607,-0.033,0.814,-12.5038,-3.8626,3.7863,160173
12,0.0145,-0.1211,0.7893,-8.8626,-4.7328,1.313,160193
13,-0.0114,-0.1006,0.8254,1.4809,-2.7328,0.1832,160213
14,0.001,-0.0325,0.8057,5.5496,1.7099,4.4122,160233
15,-0.0119,-0.0437,0.8479,0.2137,5.542,8.1908,160253
16,-0.0209,-0.042,0.8647,-12.6947,1.9008,8.1374,160273
17,-0.0207,-0.0237,0.8591,-19.458,2.1756,2.1603,160293
18,-0.018,-0.0649,0.8594,-26.2901,-0.5267,1.5115,160313
19,0.0049,-0.1038,0.8223,-25.5038,-0.7328,-0.2977,160333
20,-0.0016,-0.0999,0.8347,-21.5802,-2.542,0.7176,160353
21,0.0057,-0.1113,0.8645,-21.3206,-5.2366,1.2595,160373
22,0.0274,-0.0872,0.8691,-29.1985,-7.8779,2.8855,160393
23,0.0179,-0.0547,0.832,-39.4962,-9.1603,2.8626,160413
24,0.0052,-0.0435,0.7871,-52.5802,-9.8321,3.9008,160433
25,0.0069,-0.1172,0.7593,-53.626,-7.7176,2.7634,160453
26,0.012,-0.1677,0.8491,-49.6718,-6.8168,0,160473
27,0.0552,-0.1855,0.8433,-54.2366,-11.9008,1.6947,160493
28,0.0591,-0.1633,0.801,-67.916,-14.3893,6.8855,160513
29,0.0494,-0.0996,0.6899,-95.0305,-13.3664,10.2748,160533
30,0.0162,-0.1541,0.6187,-116.1527,-11.0153,12.4275,160553
31,0.0142,-0.2607,0.6316,-123.6031,-9.7023,12.7786,160573
32,0.0142,-0.2852,0.6404,-128.7939,-10.0305,11.9084,160593
33,0.0191,-0.3635,0.5779,-133.9466,-7.1374,13.145,160613
34,0.0057,-0.4985,0.5269,-118.4657,3.1603,11.4275,160633
35,-0.0585,-0.4473,0.5486,-95.6794,7.1756,11.2519,160653
36,-0.0883,-0.3904,0.5347,-94.0992,5.5115,14.5038,160673
37,-0.079,-0.3953,0.5117,-106.1908,0.0305,18.8168,160693
38,-0.0768,-0.4192,0.4717,-120.9313,-1.458,23.8397,160713
39,-0.0646,-0.5105,0.4092,-127.8779,0.0153,24.8473,160733
40,-0.0419,-0.6135,0.3984,-117.7939,-1.4198,24.7328,160753
41,-0.0278,-0.636,0.4011,-102.4046,1.8855,29.2901,160773
42,-0.017,-0.5613,0.3083,-108.4122,6.2214,40.7099,160793
43,-0.0644,-0.5762,0.252,-124.626,10.5573,50.6565,160813
44,-0.0695,-0.699,0.1956,-120.3817,15.1527,55.0076,160833
45,-0.0651,-0.7651,0.1841,-97.458,23.8397,62.0916,160853
46,-0.1376,-0.6689,0.1799,-91.374,26.4275,71.7786,160873
47,-0.2309,-0.655,0.1973,-92.0153,18.8244,78.5649,160893
48,-0.2316,-0.6079,0.124,-88.9847,11.7939,84.7634,160913
49,-0.2316,-0.6345,0.0957,-79.2901,6.6718,90.0458,160933
50,-0.2756,-0.6086,0.104,-60.8473,3.687,95.542,160953
51,-0.2748,-0.5447,0.0859,-52.9695,2.0229,102.0382,160973
52,-0.3088,-0.4946,0.0547,-61.5267,-2.1527,106.4122,160993
53,-0.3571,-0.4912,0.0273,-70.0916,-4.687,108.5649,161013
54,-0.384,-0.5193,-0.0037,-59.1527,-5.5649,104.8626,161033
55,-0.4123,-0.385,-0.0454,-55.5344,-6.2824,109.9389,161053
56,-0.444,-0.3149,-0.0791,-84.4657,-7.8931,109.3969,161073
57,-0.4946,-0.4077,-0.0928,-108.6641,-15.1374,104.0534,161093
58,-0.4582,-0.4517,-0.1821,-85.2748,-12.8931,102.8473,161113
59,-0.4875,-0.4316,-0.1199,-62.458,-9.4962,115.0992,161133
60,-0.5849,-0.3613,-0.0635,-46.7099,-18.626,119.8855,161153
61,-0.5986,-0.252,-0.135,-48.8779,-29.3511,118.1756,161173
62,-0.6081,-0.2178,-0.1924,-53.3664,-33.0763,113.9847,161193
63,-0.6323,-0.2568,-0.1592,-37.4656,-34.0153,111.2519,161213
64,-0.6708,-0.1277,-0.1538,-33.7099,-39.1832,113.3206,161233
65,-0.7057,-0.082,-0.1541,-47.9084,-44.4656,112.5038,161253
66,-0.7463,-0.074,-0.1453,-57.6183,-50.1756,108.6031,161273
67,-0.7558,-0.0806,-0.1421,-48.1985,-53.8855,103.6412,161293
68,-0.7143,-0.0642,-0.1619,-24.5038,-51.4198,102.5191,161313
69,-0.7636,0.0183,-0.1201,-16.7786,-49.7634,103.0916,161333
70,-0.7853,0.0935,-0.0901,-30.4504,-53.9313,99.687,161353
71,-0.7934,0.1208,-0.0884,-47.5573,-58.8015,90.2214,161373
72,-0.7971,0.1436,-0.0911,-50.2977,-60.4809,86.3282,161393
73,-0.7607,0.0845,-0.0908,-29.6489,-54.4275,86.8397,161413
74,-0.8007,0.1697,-0.0186,-9.6107,-49.8015,87.4657,161433
75,-0.8071,0.2202,0.0239,-9.8702,-47.1985,78.8092,161453
76,-0.8249,0.2983,0.0229,-22.6183,-45.4733,74.084,161473
77,-0.8207,0.2671,-0.0095,-34.7863,-42.8931,66.6107,161493
78,-0.8383,0.2234,0.0205,-28.4504,-37.1985,61.7099,161513
79,-0.842,0.2932,0.0308,-15.2824,-31.3893,60.4656,161533
80,-0.8588,0.342,0.0376,-23.0687,-28.6947,59.855,161553
81,-0.8661,0.3601,0.0068,-38.2824,-26.3206,56.1908,161573
82,-0.852,0.2639,0.0195,-38.855,-21.8473,51.4122,161593
83,-0.8586,0.2639,0.0312,-20.1679,-17.2443,49.7557,161613
84,-0.9079,0.2937,0.0933,-6.3664,-17.1145,51.6489,161633
85,-0.8937,0.3494,0.075,-3.6107,-18.6183,51.6183,161653
86,-0.8896,0.3984,0.0703,-10.8779,-18.1603,50.5649,161673
87,-0.8788,0.3777,0.0701,-12.8092,-17.5038,47.1221,161693
88,-0.8876,0.4067,0.0898,-3.8244,-15.8092,44.6565,161713
89,-0.8825,0.4458,0.0913,-1.542,-16.2214,39.8168,161733
90,-0.8891,0.4724,0.0947,-2.0763,-15.145,36.1069,161753
91,-0.8881,0.4666,0.0906,-1.5496,-16.4046,31.9313,161773
92,-0.8871,0.502,0.0964,5.0992,-15.4885,28.3282,161793
93,-0.8686,0.5212,0.0869,5.5878,-13.1985,24.1069,161813
94,-0.8937,0.5222,0.1228,-3.8168,-14.2443,19.084,161833
95,-0.9067,0.5078,0.1106,-8.0382,-17.7252,15.1603,161853
96,-0.8857,0.4517,0.0669,-4.1832,-16.4809,13.5038,161873
97,-0.8889,0.4575,0.0896,7.9542,-12.9389,12.5573,161893
98,-0.9045,0.5039,0.1204,10.8015,-12.9008,12.2977,161913
99,-0.9294,0.5564,0.1135,2.1221,-15.229,12.374,161933
100,-0.9052,0.4832,0.0872,-6.5496,-15.9237,11.5496,161953
101,-0.9103,0.4893,0.0886,-4.4046,-11.0611,12.1908,161973
102,-0.9201,0.4817,0.1353,0.6412,-9.5878,12,161993
103,-0.9252,0.5142,0.1382,6.4885,-9.1756,13.5267,162013
104,-0.924,0.5361,0.1265,1.0687,-11.4351,13.8702,162033
105,-0.9072,0.519,0.0996,-3.2519,-12.5725,12.2672,162053
106,-0.9174,0.5259,0.135,-2.0992,-13.0687,9.8168,162073
107,-0.9059,0.5386,0.1353,-1.687,-14.0611,7.5725,162093
108,-0.9042,0.5498,0.1255,-4.6489,-13.6336,7.6183,162113
109,-0.8847,0.5171,0.1294,-6.3206,-11.2214,7.9389,162133
110,-0.8815,0.5054,0.1501,-2.0992,-7.7557,7.7863,162153
111,-0.8896,0.5181,0.1458,4.6031,-5.6794,7.5038,162173
112,-0.8901,0.551,0.1353,0.6947,-5.3588,7.4809,162193
113,-0.893,0.5378,0.1531,-2.5191,-6.6947,6.2595,162213
114,-0.882,0.5566,0.1333,-0.2519,-7.3893,4.9771,162233
115,-0.8808,0.5547,0.1282,-4.0763,-5.7481,4.6718,162253
116,-0.8815,0.5239,0.1604,-1.6565,-2.3053,3.5878,162273
117,-0.8869,0.5444,0.1572,1.1527,-1.1298,3.0153,162293
118,-0.9052,0.5544,0.1599,-3.626,-2.9466,2.3511,162313
119,-0.903,0.554,0.1375,-9.6336,-5.0458,1.0382,162333
120,-0.9006,0.5129,0.1409,-7.7786,-4.8702,0.9695,162353
121,-0.9138,0.5303,0.1536,-2.1069,-3.8168,2.0916,162373
122,-0.9059,0.5173,0.1575,2.2061,-3.1679,1.8702,162393
123,-0.9003,0.5295,0.1411,5.2824,-3.2977,2.5878,162413
124,-0.9013,0.5383,0.1414,6.3359,-2.6412,2.4733,162433
125,-0.905,0.5566,0.1472,2.6718,-3.9542,2.5191,162453
126,-0.9081,0.5522,0.1558,-0.8397,-4.7405,1.9924,162473
127,-0.8986,0.5176,0.1633,1.0763,-4.3511,2.229,162493
128,-0.9001,0.5588,0.1475,2.1603,-3.9847,2.4427,162513
129,-0.8886,0.5652,0.1394,-3.1832,-4.5038,1.0763,162533
130,-0.8935,0.5491,0.1362,-5.0229,-3.7252,-0.0534,162553
131,-0.892,0.5378,0.1389,-3.5954,-3.0763,-0.0916,162573
132,-0.8959,0.5352,0.1533,-2.2366,-2.1603,0.2748,162593
133,-0.8989,0.5396,0.1465,-2.0076,-2.2137,1.084,162613
134,-0.8981,0.5471,0.1484,-2.1221,-2.626,2.3282,162633
135,-0.9008,0.5505,0.145,-1.8244,-2.5649,2.3282,162653
136,-0.8947,0.5442,0.1348,-1.5115,-1.7863,1.5267,162673
137,-0.8986,0.5435,0.1455,1.0458,-1.7023,1.1985,162693
138,-0.8972,0.5461,0.1499,4.4656,-1.6412,0.7863,162713
139,-0.8879,0.5444,0.1536,8.3053,-2.1527,0.771,162733
140,-0.8994,0.5583,0.1375,6.0992,-3.0916,1.0534,162753
141,-0.9047,0.5437,0.1487,3.6031,-2.5267,0.9847,162773
142,-0.8996,0.5322,0.1479,2.6565,-1.9466,1.3511,162793
143,-0.9001,0.54,0.1455,2.9008,-1.8931,2.4275,162813
144,-0.8959,0.5544,0.1445,0.4198,-1.1908,2.542,162833
145,-0.8972,0.5627,0.1438,-1.9618,-0.8855,1.771,162853
146,-0.8989,0.5671,0.1399,-3.6107,-2.0687,-0.1374,162873
147,-0.8986,0.5444,0.1311,-3.7252,-2.1908,-0.626,162893
148,-0.9067,0.5479,0.1357,-3.4427,-2.5802,-0.6336,162913
149,-0.9008,0.5195,0.1458,-1.4809,-2.1298,0.4885,162933
150,-0.9001,0.5486,0.1426,1.0458,-1.687,1.7252,162953
151,-0.8957,0.5374,0.1274,4.4809,-1.8397,1.5954,162973
152,-0.8959,0.5479,0.1277,8.8092,-1.9466,1.9542,162993
153,-0.9033,0.5715,0.1318,6.1908,-2.855,1.458,163013
154,-0.9003,0.5442,0.135,3.5725,-2.1527,1.4427,163033
155,-0.9057,0.552,0.1499,4.5802,-2.0229,2.1374,163053
156,-0.9091,0.5845,0.1382,-0.7634,-2.4962,2.4046,163073
157,-0.9013,0.5657,0.1274,-4.2977,-2.5573,1.4122,163093
158,-0.8947,0.5591,0.1248,-4.1603,-2.2901,1.0076,163113
159,-0.9099,0.5503,0.1333,-2.3282,-2.3359,0.7634,163133
160,-0.9018,0.5493,0.1355,-1.1221,-3.2061,1.313,163153
161,-0.8996,0.5515,0.1394,-2.1069,-2.0687,2.1145,163173
162,-0.9013,0.5659,0.1382,-4.3511,-2.8244,0.9771,163193
163,-0.904,0.5583,0.1365,-5.771,-3.771,-0.2214,163213
164,-0.902,0.5439,0.1353,-1.6412,-2.4427,0.6641,163233
165,-0.905,0.5364,0.1499,1.5954,-2.7863,1.0763,163253
166,-0.8952,0.5332,0.1384,7.7252,-1.9924,2.1832,163273
167,-0.9003,0.5479,0.1367,8.9847,-2.1832,2.1145,163293
168,-0.904,0.5759,0.1299,5.6794,-3.8397,2.0305,163313
169,-0.8908,0.5598,0.1296,0.8321,-3.2595,0.9466,163333
170,-0.8969,0.5645,0.1472,-1.5802,-2.2519,1.1374,163353
171,-0.8989,0.5461,0.1372,-2.4733,-1.7176,1.3282,163373
172,-0.904,0.5496,0.1306,0,-1.7557,1.7023,163393
173,-0.9047,0.564,0.1284,-0.8702,-2.1908,1.5191,163413
174,-0.9077,0.5613,0.1265,-4.0458,-3.4656,1.0687,163433
175,-0.905,0.5588,0.1392,-4.3206,-3.3511,0.4046,163453
0,0.0645,0.0322,0.8538,0.1679,14.4275,-8.1603,165833
1,0.0013,-0.0059,0.876,0.6641,9.7634,-10.916,165853
2,0.011,-0.0229,0.8665,4.7786,11.0458,-9.1527,165873
3,0.0103,0.009,0.8853,0.0534,4.9847,-3.0153,165893
4,0.0025,-0.0054,0.8933,-6.1603,0.4351,-1.7481,165913
5,0.0052,-0.0166,0.8938,-7.8931,-2.6565,-1.2443,165933
6,-0.006,-0.019,0.8909,-8.7634,-6.2748,-0.1298,165953
7,-0.0097,-0.0137,0.8911,-9.6565,-11.0458,4.3817,165973
8,0.0142,-0.0071,0.8779,-10.1069,-16.4351,12.2137,165993
9,0.0269,-0.0598,0.9116,-17.3588,-25.4962,17.2977,166013
10,-0.0051,-0.208,0.74,-11.7328,-25.542,14.1985,166033
11,-0.0395,-0.0249,0.969,-12.8397,-18.687,11.8855,166053
12,-0.0495,0.0427,0.9001,-12.458,-14.9847,12.0992,166073
13,0.0823,-0.0315,0.8357,-15.4046,-11.9771,20.2061,166093
14,0.0577,-0.0522,0.8064,-19.6947,-14.3053,9.2214,166113
15,0.0289,0.0139,0.8726,-26.855,-15.5649,0.8473,166133
16,0.0008,-0.009,0.8801,-33.1985,-14.2672,4.9771,166153
17,-0.0471,-0.0044,0.9124,-31.2519,-13.3206,2.6336,166173
18,0.0616,-0.0991,0.8784,-25.7863,-17.8702,-3.6183,166193
19,0.1141,-0.093,0.8066,-18.5878,-5.8321,-7.6641,166213
20,0.0567,-0.0408,0.8069,-12.3893,2.7099,-9.374,166233
21,0.0892,-0.0669,0.811,-1.8855,9.2824,-18.7328,166253
22,0.0452,0.0088,0.8076,7.0382,18.3435,-24.4427,166273
23,0.0091,-0.033,0.8647,7.8168,20.6336,-29.9389,166293
24,-0.02,0.0144,0.8848,7.6565,20.0916,-32.4656,166313
25,0.0103,-0.0823,0.8772,7.5878,20.145,-35.0992,166333
26,0.0032,-0.074,0.8699,13.2519,22.9313,-39.6183,166353
27,-0.0204,-0.0173,0.8572,12.6336,23.0229,-41.0916,166373
28,-0.0178,-0.0427,0.8645,5.8931,17.9466,-40.2977,166393
29,0.0067,-0.0974,0.8057,5.8244,16.0382,-41.9084,166413
30,-0.0053,-0.0808,0.7903,5.2824,13.2519,-41.6336,166433
31,-0.0014,-0.1125,0.7935,4.5649,6.2672,-39.6565,166453
32,0.0572,-0.1514,0.772,9.2137,1.4275,-38.8092,166473
33,0.066,-0.1272,0.7542,13.1832,-0.0458,-37.5878,166493
34,0.0594,-0.1145,0.7759,13.1221,-7.3664,-33.2748,166513
35,0.1463,-0.2495,0.8613,1.1374,-5.9008,-22.7939,166533
36,0.1172,-0.2319,0.9268,16.4962,-5.1298,-11.5038,166553
37,0.1168,-0.1335,0.7852,8.6794,-12.1069,-7.7405,166573
38,0.1439,-0.0952,0.7493,4.374,-7.8015,-8.1221,166593
39,0.149,-0.0525,0.7434,10.3435,0.916,-14.6565,166613
40,0.1546,0.0107,0.7815,13.6947,4.3053,-12.8626,166633
41,0.138,-0.0195,0.8591,10.542,7.2824,-8.0916,166653
42,0.1551,-0.0149,0.9111,5.1679,5.5878,-4.7634,166673
43,0.1678,0.0117,0.8833,1.0076,4.9618,0.1679,166693
44,0.1231,0.0532,0.8613,-6.5802,3.7252,4.0916,166713
45,0.1255,0.0073,0.8838,-9.1298,2.5649,5.855,166733
46,0.1319,0.02,0.9131,-12.3359,0.1221,9.771,166753
47,0.1404,-0.0244,0.8774,-15.771,-2.2672,13.6489,166773
48,0.1375,-0.0295,0.8677,-21.2366,-0.8244,15,166793
49,0.1395,-0.0334,0.8596,-23.3969,1.7328,16.8779,166813
50,0.1507,-0.0042,0.9053,-28.4198,0.1985,18.9924,166833
51,0.1841,0.0029,0.8496,-46.1374,-3.1603,23.3511,166853
52,0.1663,-0.0378,0.822,-67.458,-1.5267,30.3969,166873
53,0.1932,0.009,0.7554,-107.2443,-3.2824,35.8244,166893
54,0.2076,-0.011,0.7043,-166.9313,-2.2977,39.687,166913
55,0.129,-0.1309,0.6169,-230.1374,-0.5649,35.1985,166933
56,0.0767,-0.2605,0.5574,-252.313,-2.9313,30.5038,166953
57,0.0411,-0.5359,0.5364,-252.313,-8.5038,29.3206,166973
58,0.025,-0.8513,0.509,-179.2901,-2.7099,37.8321,166993
59,-0.0839,-0.6846,0.5024,-88.3435,-0.2672,54.0763,167013
60,-0.1284,-0.4219,0.5032,-99.9466,-11.6183,59.7786,167033
61,-0.1198,-0.4419,0.4602,-150.8855,-21.6031,68.1069,167053
62,-0.1362,-0.5957,0.4292,-183.626,-23.9389,71.9771,167073
63,-0.1725,-0.7996,0.3755,-161.6488,-22.5114,73.9237,167093
64,-0.1877,-0.7695,0.3784,-122.6107,-15.687,77.5878,167113
65,-0.1696,-0.6538,0.2922,-116.0458,-13.4733,86.1221,167133
66,-0.2455,-0.5989,0.2659,-137.4809,-22.8931,98.2672,167153
67,-0.2866,-0.6663,0.2356,-157.1985,-35.1527,107.2824,167173
68,-0.259,-0.8699,0.1641,-114.6565,-42.2672,107.7405,167193
69,-0.2858,-0.7083,0.1694,-58.6794,-35.855,116.9695,167213
70,-0.3161,-0.4956,0.1658,-52.9542,-32.6183,129.0992,167233
71,-0.3234,-0.5176,0.1499,-72.1679,-34.3817,135.3664,167253
72,-0.3754,-0.5251,0.1233,-83.5878,-37.771,136.1603,167273
73,-0.4172,-0.5515,0.094,-67.4046,-39.5344,137.4275,167293
74,-0.3915,-0.3525,0.03,-63.855,-40.1756,137,167313
75,-0.4243,-0.3225,0.0354,-101.313,-42.687,139.9618,167333
76,-0.5571,-0.3838,0.0522,-126.7634,-54.8473,132.5038,167353
77,-0.5161,-0.4573,-0.0486,-89.9542,-59.0534,124.6565,167373
78,-0.5578,-0.2964,-0.0957,-56.5954,-53.084,126.2672,167393
79,-0.6379,-0.2446,-0.0381,-60.0458,-59.626,127.8779,167413
80,-0.6935,-0.1897,-0.0364,-65.0076,-72.0992,125.4198,167433
81,-0.6935,-0.2024,-0.0352,-67.0534,-78.8244,121.9237,167453
82,-0.6765,-0.1514,0.0017,-63.0534,-81.8473,121.1298,167473
83,-0.6638,-0.1133,0.0186,-59.2824,-81.0916,121.8244,167493
84,-0.6721,-0.0769,0.0269,-55.313,-78.5267,121.2977,167513
85,-0.6752,-0.0669,0.0703,-56.2901,-76.6489,119.8015,167533
86,-0.6921,-0.0034,0.0933,-49.7176,-77.5496,118.5191,167553
87,-0.6845,0.0793,0.0466,-45.1374,-78.0458,114.916,167573
88,-0.6906,0.2065,0.0813,-68.916,-79.8779,114.1069,167593
89,-0.7297,0.1819,0.1016,-121.313,-81.9847,106.1756,167613
90,-0.6896,-0.0408,0.0979,-112.8702,-76.7176,89.1832,167633
91,-0.6784,-0.0505,0.1575,-41.6107,-66.0534,81.855,167653
92,-0.6989,0.1741,0.1494,3.1908,-50.4122,85.2137,167673
93,-0.7372,0.2644,0.1858,-0.9008,-46.3435,82.2977,167693
94,-0.7729,0.2812,0.1943,-19.313,-43.084,77.0382,167713
95,-0.7292,0.2109,0.1912,-24.9466,-33.3206,64.4198,167733
96,-0.7631,0.2378,0.1941,-13.2901,-25.8702,54.3206,167753
97,-0.7704,0.2637,0.1833,5.1985,-13.084,52.855,167773
98,-0.8366,0.3254,0.2673,10.6107,-11.4809,50.9618,167793
99,-0.8393,0.3555,0.2317,2.8855,-15.1756,46.0534,167813
100,-0.8461,0.3459,0.2361,-8.5802,-19.4962,36.7405,167833
101,-0.8603,0.3445,0.21,-9.6794,-21.8702,27.8931,167853
102,-0.883,0.3997,0.2009,-9.0076,-23.7863,23.1298,167873
103,-0.8735,0.3777,0.2202,-10.3969,-23.3893,19.1145,167893
104,-0.8915,0.4272,0.2588,-23.2519,-28.6336,15.6183,167913
105,-0.8942,0.3811,0.2439,-40.2519,-33.0534,10.6489,167933
106,-0.8718,0.2852,0.2207,-36.4122,-27.9695,8.1374,167953
107,-0.8605,0.27,0.2471,-8.0763,-17,8.0305,167973
108,-0.8784,0.3533,0.2756,9.7099,-11.9618,12.2824,167993
109,-0.8593,0.3665,0.2874,13.6947,-8.5038,13.0687,168013
110,-0.8517,0.3782,0.2595,6.4351,-4.1145,10.9237,168033
111,-0.8732,0.3806,0.271,-6.4733,-1.1527,9.4885,168053
112,-0.8513,0.3174,0.2349,-11.0229,-2.7634,6.1908,168073
113,-0.884,0.3364,0.24,-3.7863,-5.6794,5.6183,168093
114,-0.8474,0.344,0.209,4.4351,-6.4275,5.6794,168113
115,-0.8549,0.3425,0.2488,11.9237,-5.0534,6.6183,168133
116,-0.8627,0.3718,0.2485,8.9084,-3.771,6.542,168153
117,-0.8769,0.3916,0.2527,2.0305,-4.0229,3.6641,168173
118,-0.8832,0.3896,0.2444,-6.0382,-4.5573,-0.1069,168193
119,-0.8686,0.3403,0.2588,-4.6031,-5.1221,-3.7939,168213
120,-0.8664,0.3347,0.2502,10.2672,-3.4504,-3.0229,168233
121,-0.8976,0.3643,0.2556,15.9542,-2.7176,0.0687,168253
122,-0.9028,0.3945,0.2598,4.1985,-5.8473,1.7863,168273
123,-0.9057,0.3716,0.2495,-8.5344,-7.1221,0.9695,168293
124,-0.9057,0.3611,0.2654,-14.3206,-10.5191,-1.0382,168313
125,-0.8784,0.3118,0.2957,-10.771,-9.5191,-1.2748,168333
126,-0.8686,0.3315,0.2815,-2.7786,-8.5191,1.458,168353
127,-0.8552,0.323,0.2759,-0.9389,-6.3282,3.5954,168373
128,-0.8535,0.3479,0.2812,-3.9771,-5.8779,5.0687,168393
129,-0.8498,0.3474,0.2737,-5.626,-5.5802,3.5725,168413
130,-0.8498,0.3462,0.2634,-2.6336,-5.1603,1.5725,168433
131,-0.8544,0.3638,0.2483,-2.084,-5.7405,0.1679,168453
132,-0.8754,0.3579,0.2632,-4.7481,-6.2061,-0.5954,168473
133,-0.8649,0.3577,0.2505,-4.3817,-6.0382,-1.2672,168493
134,-0.8806,0.3381,0.2673,-3.0076,-5.0305,-0.9771,168513
135,-0.8769,0.3586,0.2678,-2.0611,-4.5878,0.5649,168533
136,-0.8879,0.3611,0.2686,-1.8702,-4.374,1.0076,168553
137,-0.8798,0.3713,0.2742,-2.9542,-4.3588,1.5496,168573
138,-0.8774,0.3682,0.2737,-3.1603,-4.5878,1.2595,168593
139,-0.8754,0.355,0.2483,-3.3893,-4.2672,0.9084,168613
140,-0.8649,0.3411,0.2673,-4.1756,-4.2824,0.7786,168633
141,-0.8718,0.3682,0.2729,-3.8626,-4.626,2.1069,168653
142,-0.8676,0.3499,0.2683,-3.3206,-4.4733,1.6336,168673
143,-0.8723,0.3569,0.2664,-1.7481,-4.6336,1.8092,168693
144,-0.8676,0.3564,0.2556,-3.4198,-2.9771,1.9695,168713
145,-0.8737,0.3491,0.2588,-1.7863,-2.8779,1.6031,168733
146,-0.873,0.3528,0.2798,-3.145,-2.626,2.3435,168753
147,-0.8735,0.3557,0.2754,-1.7252,-3.6641,1.7557,168773
148,-0.8686,0.3638,0.2778,-1.7939,-3.1679,1.8244,168793
149,-0.8664,0.3638,0.2583,-1.7863,-3.8015,1.0382,168813
150,-0.8705,0.3501,0.2656,-4.2443,-2.1832,0.5649,168833
151,-0.8705,0.3523,0.2798,-4.7557,-3.0916,0.1221,168853
152,-0.8786,0.3503,0.2866,-3.2824,-3.229,0.626,168873
153,-0.8603,0.3535,0.2893,-2.5725,-3.0687,1.2137,168893
154,-0.8737,0.3606,0.2764,-1.7405,-2.6718,0.9313,168913
155,-0.8681,0.3557,0.2566,-4.5878,-2.4351,0.9466,168933
156,-0.8796,0.3293,0.2852,-1.7939,-2.4809,1.4504,168953
157,-0.8647,0.3562,0.2776,-2.542,-3.3664,1.8473,168973
158,-0.8747,0.3435,0.2798,-2.0763,-2.687,1.5267,168993
159,-0.8798,0.363,0.2708,-1.7786,-3.2137,0.6489,169013
160,-0.8701,0.3694,0.2595,-3.7939,-3.3969,0.5344,169033
161,-0.8745,0.3459,0.2727,-0.7863,-2.9771,-0.145,169053
162,-0.8632,0.3569,0.2673,-0.7939,-3.1985,0.7786,169073
163,-0.8749,0.3645,0.26,-1.3969,-3.5038,1.7481,169093
164,-0.8701,0.3611,0.2681,-4.2977,-2.5496,1.9466,169113
165,-0.8754,0.3411,0.2808,-1.9237,-2.7023,1.5573,169133
166,-0.8752,0.3733,0.2739,-0.0076,-2.4656,1.9313,169153
167,-0.8788,0.3774,0.2683,-1.5573,-3.7786,1.6489,169173
168,-0.8757,0.3689,0.262,-4,-3.2137,1.771,169193
169,-0.8962,0.3528,0.2722,-4.5802,-3.084,0.8931,169213
170,-0.8835,0.3496,0.281,-2.7786,-3.9771,1.6031,169233
171,-0.8808,0.3655,0.2795,0.0534,-4.3893,2.5649,169253
172,-0.8674,0.3628,0.2839,1.2901,-5.2366,1.9313,169273
173,-0.8581,0.3716,0.2759,-0.8855,-5.9618,0.8855,169293
174,-0.8564,0.3604,0.2686,-3.7023,-5.6718,-0.7099,169313
175,-0.8561,0.3491,0.2649,-4.4122,-5.9618,-1.3511,169333
0,0.338,-0.01,0.6816,-3.7328,-1.4275,1.3817,172013
1,0.1085,-0.1787,0.7483,-2.0992,0.3053,0.1679,172033
2,0.0984,-0.1995,0.79,-3.8244,-3.0611,0.2061,172053
3,0.1004,-0.1924,0.7722,-5.7863,-4.9084,-3.0305,172073
4,0.1055,-0.1672,0.7524,-6.9924,-4.0763,-3.3206,172093
5,0.1231,-0.1826,0.7532,-6.9847,-3.4046,0.5954,172113
6,0.1151,-0.197,0.7637,-4.7634,-4.0687,3.0611,172133
7,0.1229,-0.1968,0.7505,-3.229,-4.1985,3.2672,172153
8,0.1287,-0.1882,0.7498,-2.5878,-3.0611,4.1679,172173
9,0.1302,-0.1858,0.75,-3.5344,-1.4275,7.7252,172193
10,0.1317,-0.1929,0.7397,-3.5649,3.0229,11.2061,172213
11,0.1011,-0.2764,0.7039,7.8779,0.2519,11.9389,172233
12,0.0701,-0.1589,0.8008,4.9466,6.3817,15.5496,172253
13,0.0704,-0.2119,0.769,6.4962,10.1145,11.5954,172273
14,0.0428,-0.1604,0.8064,0.8321,4.1298,7.0305,172293
15,0.0562,-0.0403,0.7659,-10.3893,-6.3206,-0.626,172313
16,0.0628,-0.1287,0.7668,-22.6641,4.1298,6.6107,172333
17,0.1046,-0.0974,0.7903,-40.9847,5.7863,2.687,172353
18,0.1422,-0.2661,0.8108,-47.5649,3.1832,1.7405,172373
19,0.1512,-0.2642,0.7717,-44.5954,5.5954,6.5191,172393
20,0.1343,-0.1809,0.7463,-51.6565,5.0763,10.542,172413
21,0.1729,-0.1663,0.7085,-65.1298,6.1221,10.7939,172433
22,0.1526,-0.1284,0.6836,-95.7634,6.7634,15.2443,172453
23,0.1536,-0.3308,0.6733,-111.145,6.4427,16.084,172473
24,0.149,-0.4482,0.6638,-94.5496,12.7023,18.1145,172493
25,0.0923,-0.3728,0.6411,-87.9924,16.3282,24.8092,172513
26,0.0977,-0.3777,0.6106,-107.9237,19.2672,30.5878,172533
27,0.0594,-0.4041,0.5698,-140.1908,22.5038,36.8168,172553
28,0.0286,-0.5852,0.5146,-152.5038,25.542,41.9542,172573
29,0.0142,-0.6921,0.4526,-126.4733,30.9847,48.3969,172593
30,-0.0373,-0.6035,0.4419,-107.4885,34.0763,59.1756,172613
31,-0.1086,-0.571,0.4119,-112.9237,28.8092,69.8015,172633
32,-0.1266,-0.5901,0.3491,-120.458,22.9771,77.8626,172653
